# Subject_id,Trial_id, Coherence, Accuracy, RT, PMT, MT, Trial_Type, Latency_first_partial_burst, Location_first_partial_burst, motion direction, response_given, burst_between_EMGresp_and_resp,                                 MAKES_PARTIAL_burst_between_EMGresp_and_resp, delay, response_moment,                                 nb_partial_burst_same_EMG_channel_as_response_during_stim_pres, nb_partial_burst_opposite_EMG_channel_as_response_during_stim_pres_V1, nb_partial_burst_opposite_EMG_channel_as_response_during_stim_pres_V2,                                nb_partial_burst_same_EMG_channel_during_delay, nb_partial_burst_opposite_EMG_channel_during_delay,                                 nb_partial_burst_same_EMG_channel_as_response_during_response_signal, nb_partial_burst_opposite_EMG_channel_as_response_during_response_signal_V1, nb_partial_burst_opposite_EMG_channel_as_response_during_response_signal_V2,                                 mapping, cue
1 , 1 , 0.40 , 0,  1.66601562 , 1.54785156, 0.11816406, 5, 0.00000000, 0, 270, 2, 0, 0, 7, 1, 0, 0, 0, 0, 0, 1, 0, 0 ,1,0
1 , 2 , 0.11 , 0,  0.84765625 , 0.63769531, 0.20996094, 5, 7.91992188, 1, 270, 2, 0, 1, 7, 1, 0, 0, 0, 1, 0, 0, 0, 0 ,1,0
1 , 3 , 0.11 , 1,  0.98828125 , 0.87207031, 0.11621094, 5, 0.00000000, 0, 90, 1, 0, 0, 7, 1, 0, 0, 0, 0, 0, 1, 0, 0 ,1,0
1 , 4 , 0.02 , 1,  0.73046875 , 0.58203125, 0.14843750, 5, 0.00000000, 0, 90, 1, 0, 0, 7, 1, 0, 0, 0, 0, 0, 1, 0, 0 ,1,0
1 , 5 , 0.40 , 0,  0.91113281 , 0.76660156, 0.14453125, 5, 0.00000000, 0, 270, 2, 0, 1, 7, 1, 0, 0, 0, 0, 0, 0, 0, 0 ,1,0
1 , 6 , 0.40 , 0,  0.93945312 , 0.79296875, 0.14648438, 5, 8.64843750, 1, 270, 2, 0, 0, 7, 1, 0, 0, 0, 1, 0, 1, 0, 0 ,1,0
1 , 7 , 0.11 , 0,  1.18652344 , 0.99804688, 0.18847656, 5, 0.00000000, 0, 270, 2, 0, 0, 7, 1, 0, 0, 0, 0, 0, 1, 0, 0 ,1,0
1 , 8 , 0.02 , 1,  0.79492188 , 0.67089844, 0.12402344, 5, 0.00000000, 0, 90, 1, 0, 0, 7, 1, 0, 0, 0, 0, 0, 1, 0, 0 ,1,0
1 , 9 , 0.40 , 1,  0.45800781 , 0.31835938, 0.13964844, 5, 0.00000000, 0, 90, 2, 0, 1, 7, 1, 0, 0, 0, 0, 0, 0, 0, 0 ,1,0
1 , 10 , 0.40 , 0,  0.89648438 , 0.76074219, 0.13574219, 5, 0.00000000, 0, 270, 2, 0, 1, 7, 1, 0, 0, 0, 0, 0, 0, 0, 0 ,1,0
1 , 11 , 0.40 , 1,  1.23925781 , 1.09082031, 0.14843750, 5, 0.00000000, 0, 90, 2, 0, 1, 7, 1, 0, 0, 0, 0, 0, 0, 0, 0 ,1,0
1 , 12 , 0.11 , 0,  1.09082031 , 0.97167969, 0.11914062, 5, 0.00000000, 0, 90, 2, 0, 0, 7, 1, 0, 0, 0, 0, 0, 1, 0, 0 ,1,0
1 , 13 , 0.02 , 1,  0.87988281 , 0.77148438, 0.10839844, 5, 0.00000000, 0, 90, 2, 0, 0, 7, 1, 0, 0, 0, 0, 0, 1, 0, 0 ,1,0
1 , 14 , 0.02 , 1,  0.86425781 , 0.74316406, 0.12109375, 5, 0.00000000, 0, 270, 1, 0, 0, 7, 1, 0, 0, 0, 0, 0, 1, 0, 0 ,1,0
1 , 15 , 0.40 , 1,  0.89941406 , 0.71972656, 0.17968750, 5, 0.00000000, 0, 90, 2, 0, 1, 7, 1, 0, 0, 0, 0, 0, 0, 0, 0 ,1,0
1 , 16 , 0.11 , 1,  0.81933594 , 0.68066406, 0.13867188, 5, 0.00000000, 0, 90, 1, 1, 0, 7, 1, 0, 0, 0, 0, 0, 1, 1, 2 ,1,0
1 , 17 , 0.02 , 1,  0.84472656 , 0.69335938, 0.15136719, 5, 0.00000000, 0, 90, 2, 0, 0, 7, 1, 0, 0, 0, 0, 0, 1, 0, 0 ,1,0
1 , 18 , 0.40 , 0,  0.95507812 , 0.80371094, 0.15136719, 5, 0.00000000, 0, 270, 2, 0, 0, 7, 1, 0, 0, 0, 0, 0, 1, 1, 1 ,1,0
1 , 19 , 0.11 , 1,  0.96875000 , 0.85742188, 0.11132812, 5, 1.25390625, 2, 90, 2, 1, 0, 7, 1, 0, 1, 1, 1, 0, 1, 2, 2 ,1,0
1 , 20 , 0.02 , 0,  1.28417969 , 1.10351562, 0.18066406, 5, 0.00000000, 0, 270, 2, 1, 0, 7, 1, 0, 0, 0, 0, 0, 1, 2, 2 ,1,0
1 , 21 , 0.40 , 0,  0.98046875 , 0.83007812, 0.15039062, 5, 2.68066406, 1, 270, 1, 0, 0, 7, 1, 0, 0, 0, 1, 0, 1, 0, 0 ,1,0
1 , 22 , 0.40 , 0,  1.63378906 , 1.45312500, 0.18066406, 5, 0.00000000, 0, 90, 2, 0, 0, 7, 1, 0, 0, 0, 0, 0, 2, 0, 0 ,1,0
1 , 23 , 0.11 , 1,  0.85253906 , 0.71484375, 0.13769531, 5, 0.00000000, 0, 90, 1, 0, 0, 7, 1, 0, 0, 0, 0, 0, 1, 0, 0 ,1,0
1 , 24 , 0.02 , 1,  0.80566406 , 0.66210938, 0.14355469, 5, 3.82128906, 2, 90, 1, 0, 1, 7, 1, 0, 0, 0, 0, 1, 0, 0, 0 ,1,0
1 , 25 , 0.11 , 0,  0.57519531 , 0.41894531, 0.15625000, 5, 0.00000000, 0, 270, 1, 0, 1, 7, 1, 0, 0, 0, 0, 0, 0, 0, 0 ,1,0
1 , 26 , 0.02 , 1,  0.73046875 , 0.57519531, 0.15527344, 5, 3.50488281, 1, 90, 2, 0, 0, 7, 1, 0, 0, 0, 3, 0, 1, 0, 0 ,1,0
1 , 27 , 0.40 , 0,  1.78515625 , 1.64843750, 0.13671875, 5, 0.00000000, 0, 90, 1, 0, 0, 7, 1, 0, 0, 0, 0, 0, 0, 3, 3 ,1,0
1 , 28 , 0.11 , 1,  1.51171875 , 1.36328125, 0.14843750, 5, 0.00000000, 0, 270, 2, 0, 0, 7, 1, 0, 0, 0, 0, 0, 2, 0, 0 ,1,0
1 , 29 , 0.02 , 0,  0.95019531 , 0.81445312, 0.13574219, 5, 7.43066406, 2, 270, 1, 0, 1, 7, 1, 0, 0, 0, 0, 1, 0, 0, 0 ,1,0
1 , 30 , 0.11 , 0,  0.72558594 , 0.56738281, 0.15820312, 5, 2.69140625, 2, 270, 1, 0, 0, 7, 1, 0, 0, 0, 0, 1, 0, 1, 1 ,1,0
1 , 31 , 0.02 , 1,  1.09863281 , 0.97167969, 0.12695312, 5, 0.00000000, 0, 270, 2, 0, 0, 7, 1, 0, 0, 0, 0, 0, 1, 0, 0 ,1,0
1 , 32 , 0.02 , 0,  1.02636719 , 0.92871094, 0.09765625, 5, 0.00000000, 0, 270, 1, 1, 0, 7, 1, 0, 0, 0, 0, 0, 1, 3, 3 ,1,0
1 , 33 , 0.02 , 1,  0.87988281 , 0.65234375, 0.22753906, 5, 5.85742188, 1, 270, 2, 1, 0, 7, 1, 0, 0, 0, 1, 0, 0, 0, 1 ,1,0
1 , 34 , 0.11 , 0,  0.79101562 , 0.65722656, 0.13378906, 5, 0.00000000, 0, 270, 2, 0, 1, 7, 1, 0, 0, 0, 0, 0, 0, 0, 0 ,1,0
1 , 35 , 0.02 , 0,  0.71679688 , 0.62011719, 0.09667969, 5, 2.15039062, 2, 270, 2, 0, 0, 7, 1, 0, 0, 0, 0, 1, 1, 0, 0 ,1,0
1 , 36 , 0.40 , 1,  0.83984375 , 0.68554688, 0.15429688, 5, 0.00000000, 0, 90, 1, 0, 1, 7, 1, 0, 0, 0, 0, 0, 0, 0, 0 ,1,0
1 , 37 , 0.11 , 0,  0.70117188 , 0.46679688, 0.23437500, 5, 0.00000000, 0, 270, 2, 0, 1, 7, 1, 0, 0, 0, 0, 0, 0, 0, 0 ,1,0
1 , 38 , 0.11 , 1,  0.96289062 , 0.82421875, 0.13867188, 5, 0.00000000, 0, 90, 2, 0, 1, 7, 1, 0, 0, 0, 0, 0, 0, 0, 0 ,1,0
1 , 39 , 0.11 , 0,  0.83593750 , 0.66406250, 0.17187500, 5, 0.00000000, 0, 270, 1, 0, 0, 7, 1, 0, 0, 0, 0, 0, 0, 2, 2 ,1,0
1 , 40 , 0.02 , 1,  1.26660156 , 1.10253906, 0.16406250, 5, 5.05371094, 2, 90, 1, 0, 0, 7, 1, 0, 0, 0, 0, 2, 1, 3, 3 ,1,0
1 , 41 , 0.02 , 1,  1.05761719 , 0.94042969, 0.11718750, 5, 0.00000000, 0, 90, 1, 0, 0, 7, 1, 0, 0, 0, 0, 0, 2, 3, 3 ,1,0
1 , 42 , 0.02 , 1,  1.19433594 , 0.93945312, 0.25488281, 5, 6.33886719, 2, 90, 1, 0, 1, 7, 1, 0, 0, 0, 0, 2, 0, 0, 0 ,1,0
1 , 43 , 0.40 , 1,  0.74511719 , 0.64062500, 0.10449219, 5, 0.00000000, 0, 270, 2, 0, 0, 7, 1, 0, 0, 0, 0, 0, 0, 1, 1 ,1,0
1 , 44 , 0.02 , 1,  0.78417969 , 0.61230469, 0.17187500, 5, 0.00000000, 0, 90, 2, 0, 1, 7, 1, 0, 0, 0, 0, 0, 0, 0, 0 ,1,0
1 , 45 , 0.40 , 0,  0.66015625 , 0.47363281, 0.18652344, 5, 5.64160156, 2, 270, 1, 0, 1, 7, 1, 0, 0, 0, 0, 6, 0, 0, 0 ,1,0
1 , 46 , 0.40 , 1,  0.65429688 , 0.54785156, 0.10644531, 5, 0.00000000, 0, 90, 1, 0, 0, 7, 1, 0, 0, 0, 0, 0, 1, 0, 0 ,1,0
1 , 47 , 0.11 , 0,  0.83007812 , 0.69042969, 0.13964844, 5, 0.00000000, 0, 270, 2, 0, 1, 7, 1, 0, 0, 0, 0, 0, 0, 0, 0 ,1,0
1 , 48 , 0.11 , 1,  0.78613281 , 0.65234375, 0.13378906, 5, 0.00000000, 0, 90, 2, 0, 1, 7, 1, 0, 0, 0, 0, 0, 0, 0, 0 ,1,0
1 , 49 , 0.02 , 0,  0.85449219 , 0.73437500, 0.12011719, 5, 0.00000000, 0, 270, 2, 0, 0, 7, 1, 0, 0, 0, 0, 0, 1, 0, 0 ,1,0
1 , 50 , 0.11 , 1,  0.89257812 , 0.80859375, 0.08398438, 5, 0.00000000, 0, 270, 1, 0, 0, 7, 1, 0, 0, 0, 0, 0, 1, 0, 0 ,1,0
1 , 51 , 0.02 , 0,  1.04589844 , 0.93359375, 0.11230469, 5, 0.00000000, 0, 270, 1, 0, 0, 7, 1, 0, 0, 0, 0, 0, 0, 1, 1 ,1,0
1 , 52 , 0.11 , 1,  0.81933594 , 0.67871094, 0.14062500, 5, 0.00000000, 0, 90, 1, 0, 0, 7, 1, 0, 0, 0, 0, 0, 0, 1, 1 ,1,0
1 , 53 , 0.02 , 1,  0.72656250 , 0.58398438, 0.14257812, 5, 0.00000000, 0, 90, 1, 0, 1, 7, 1, 0, 0, 0, 0, 0, 0, 0, 0 ,1,0
1 , 54 , 0.40 , 0,  0.80175781 , 0.66699219, 0.13476562, 5, 0.00000000, 0, 270, 2, 0, 1, 7, 1, 0, 0, 0, 0, 0, 0, 0, 0 ,1,0
1 , 55 , 0.40 , 1,  0.77734375 , 0.61718750, 0.16015625, 5, 0.00000000, 0, 90, 2, 0, 1, 7, 1, 0, 0, 0, 0, 0, 0, 0, 0 ,1,0
1 , 56 , 0.40 , 1,  1.78710938 , 1.62402344, 0.16308594, 5, 0.00000000, 0, 90, 1, 0, 0, 7, 1, 0, 0, 0, 0, 0, 1, 0, 0 ,1,0
1 , 57 , 0.40 , 1,  3.58398438 , 3.28710938, 0.29687500, 5, 2.56250000, 1, 90, 2, 0, 0, 7, 0, 0, 0, 0, 3, 0, -1, -1, -1 ,1,0
1 , 58 , 0.02 , 0,  1.55468750 , 1.43457031, 0.12011719, 5, 0.00000000, 0, 90, 1, 0, 0, 7, 1, 0, 0, 0, 0, 0, 2, 2, 2 ,1,0
1 , 59 , 0.02 , 1,  0.90527344 , 0.74316406, 0.16210938, 5, 0.00000000, 0, 90, 2, 0, 1, 7, 1, 0, 0, 0, 0, 0, 0, 0, 0 ,1,0
1 , 60 , 0.40 , 1,  0.84082031 , 0.70605469, 0.13476562, 5, 0.00000000, 0, 270, 1, 0, 0, 7, 1, 0, 0, 0, 0, 0, 1, 0, 0 ,1,0
1 , 61 , 0.40 , 1,  0.61425781 , 0.49707031, 0.11718750, 5, 1.54199219, 2, 270, 2, 0, 0, 7, 1, 0, 1, 1, 0, 0, 1, 0, 0 ,1,0
1 , 62 , 0.02 , 1,  1.00878906 , 0.85742188, 0.15136719, 5, 0.00000000, 0, 270, 1, 0, 1, 7, 1, 0, 0, 0, 0, 0, 0, 0, 0 ,1,0
1 , 63 , 0.11 , 0,  0.93554688 , 0.79296875, 0.14257812, 5, 8.16796875, 2, 270, 1, 0, 1, 7, 1, 0, 0, 0, 0, 1, 0, 0, 0 ,1,0
1 , 64 , 0.02 , 0,  0.88281250 , 0.72070312, 0.16210938, 5, 2.01367188, 2, 270, 2, 0, 0, 7, 1, 0, 0, 0, 0, 1, 0, 1, 1 ,1,0
1 , 65 , 0.02 , 1,  0.85058594 , 0.73535156, 0.11523438, 5, 0.00000000, 0, 90, 2, 1, 0, 7, 1, 0, 0, 0, 0, 0, 0, 1, 1 ,1,0
1 , 66 , 0.11 , 1,  0.95507812 , 0.81152344, 0.14355469, 5, 0.00000000, 0, 270, 1, 0, 1, 7, 1, 0, 0, 0, 0, 0, 0, 0, 0 ,1,0
1 , 67 , 0.11 , 1,  0.84960938 , 0.73144531, 0.11816406, 5, 2.57128906, 1, 90, 2, 0, 1, 7, 1, 0, 0, 0, 1, 0, 0, 0, 0 ,1,0
1 , 68 , 0.40 , 0,  1.00390625 , 0.86914062, 0.13476562, 5, 4.14843750, 2, 270, 1, 0, 0, 7, 1, 0, 0, 0, 0, 1, 4, 1, 1 ,1,0
1 , 69 , 0.11 , 0,  0.83203125 , 0.72070312, 0.11132812, 5, 0.00000000, 0, 90, 2, 0, 1, 7, 1, 0, 0, 0, 0, 0, 0, 0, 0 ,1,0
1 , 70 , 0.11 , 1,  0.73535156 , 0.53808594, 0.19726562, 5, 0.00000000, 0, 90, 1, 0, 1, 7, 1, 0, 0, 0, 0, 0, 0, 0, 0 ,1,0
1 , 71 , 0.02 , 1,  1.64355469 , 1.50488281, 0.13867188, 5, 0.00000000, 0, 90, 1, 0, 0, 7, 1, 0, 0, 0, 0, 0, 3, 0, 0 ,1,0
1 , 72 , 0.40 , 1,  0.81445312 , 0.64062500, 0.17382812, 5, 0.00000000, 0, 90, 1, 0, 1, 7, 1, 0, 0, 0, 0, 0, 0, 0, 0 ,1,0
1 , 73 , 0.02 , 1,  0.90917969 , 0.78906250, 0.12011719, 5, 0.00000000, 0, 90, 2, 0, 0, 7, 1, 0, 0, 0, 0, 0, 1, 0, 0 ,1,0
1 , 74 , 0.40 , 1,  1.15917969 , 1.02636719, 0.13281250, 5, 0.99414062, 1, 270, 2, 1, 0, 7, 1, 1, 0, 0, 0, 0, 0, 2, 2 ,1,0
1 , 75 , 0.11 , 0,  0.74804688 , 0.62500000, 0.12304688, 5, 0.00000000, 0, 270, 2, 0, 0, 7, 1, 0, 0, 0, 0, 0, 1, 0, 0 ,1,0
1 , 76 , 0.11 , 0,  0.99609375 , 0.87304688, 0.12304688, 5, 0.00000000, 0, 90, 2, 0, 1, 7, 1, 0, 0, 0, 0, 0, 0, 0, 0 ,1,0
1 , 77 , 0.11 , 1,  0.81738281 , 0.69921875, 0.11816406, 5, 0.00000000, 0, 90, 2, 0, 0, 7, 1, 0, 0, 0, 0, 0, 1, 0, 0 ,1,0
1 , 78 , 0.02 , 0,  0.53808594 , 0.39062500, 0.14746094, 5, 0.00000000, 0, 270, 1, 0, 1, 7, 1, 0, 0, 0, 0, 0, 0, 0, 0 ,1,0
1 , 79 , 0.40 , 0,  0.57617188 , 0.43066406, 0.14550781, 5, 5.50585938, 2, 270, 1, 0, 1, 7, 1, 0, 0, 0, 2, 1, 0, 0, 0 ,1,0
1 , 80 , 0.11 , 0,  0.79394531 , 0.66503906, 0.12890625, 5, 0.00000000, 0, 270, 1, 0, 1, 7, 1, 0, 0, 0, 0, 0, 0, 0, 0 ,1,0
1 , 81 , 0.02 , 0,  0.65820312 , 0.50585938, 0.15234375, 5, 0.00000000, 0, 270, 2, 0, 1, 7, 1, 0, 0, 0, 0, 0, 0, 0, 0 ,1,0
1 , 82 , 0.40 , 1,  0.83105469 , 0.68945312, 0.14160156, 5, 0.00000000, 0, 90, 2, 0, 0, 7, 1, 0, 0, 0, 0, 0, 1, 0, 0 ,1,0
1 , 83 , 0.02 , 0,  0.45800781 , 0.30664062, 0.15136719, 5, 0.00000000, 0, 270, 1, 0, 1, 7, 1, 0, 0, 0, 0, 0, 0, 0, 0 ,1,0
1 , 84 , 0.11 , 1,  0.58007812 , 0.46484375, 0.11523438, 5, 0.00000000, 0, 90, 2, 0, 1, 7, 1, 0, 0, 0, 0, 0, 0, 0, 0 ,1,0
1 , 85 , 0.40 , 1,  0.79101562 , 0.62304688, 0.16796875, 5, 6.25878906, 2, 90, 1, 0, 0, 7, 1, 0, 0, 0, 0, 1, 1, 0, 0 ,1,0
1 , 86 , 0.40 , 0,  0.98437500 , 0.82812500, 0.15625000, 5, 0.00000000, 0, 270, 2, 0, 0, 7, 1, 0, 0, 0, 0, 0, 2, 0, 0 ,1,0
1 , 87 , 0.40 , 1,  0.52441406 , 0.37500000, 0.14941406, 5, 0.00000000, 0, 270, 2, 0, 1, 7, 1, 0, 0, 0, 0, 0, 0, 0, 0 ,1,0
1 , 88 , 0.40 , 1,  0.77343750 , 0.63085938, 0.14257812, 5, 0.00000000, 0, 90, 1, 0, 1, 7, 1, 0, 0, 0, 0, 0, 0, 0, 0 ,1,0
1 , 89 , 0.11 , 1,  0.62988281 , 0.51855469, 0.11132812, 5, 0.00000000, 0, 90, 2, 0, 1, 7, 1, 0, 0, 0, 0, 0, 0, 0, 0 ,1,0
1 , 90 , 0.02 , 0,  0.90625000 , 0.80273438, 0.10351562, 5, 0.00000000, 0, 270, 1, 0, 0, 7, 1, 0, 0, 0, 0, 0, 1, 0, 0 ,1,0
1 , 91 , 0.11 , 0,  0.58300781 , 0.42578125, 0.15722656, 5, 0.00000000, 0, 270, 1, 0, 1, 7, 1, 0, 0, 0, 0, 0, 0, 0, 0 ,1,0
1 , 92 , 0.40 , 1,  0.48046875 , 0.38281250, 0.09765625, 5, 0.00000000, 0, 90, 1, 0, 0, 7, 1, 0, 0, 0, 0, 0, 1, 0, 0 ,1,0
1 , 93 , 0.11 , 0,  0.72656250 , 0.59375000, 0.13281250, 5, 0.04394531, 1, 270, 1, 0, 1, 7, 1, 3, 0, 0, 0, 0, 0, 0, 0 ,1,0
1 , 94 , 0.40 , 1,  0.81640625 , 0.63769531, 0.17871094, 5, 0.00000000, 0, 90, 2, 0, 0, 7, 1, 0, 0, 0, 0, 0, 1, 1, 1 ,1,0
1 , 95 , 0.11 , 1,  1.75390625 , 1.58300781, 0.17089844, 5, 0.71484375, 1, 90, 2, 0, 1, 7, 1, 2, 0, 0, 0, 0, 0, 0, 0 ,1,0
1 , 96 , 0.02 , 0,  0.69531250 , 0.52734375, 0.16796875, 5, 0.00000000, 0, 270, 2, 0, 0, 7, 1, 0, 0, 0, 0, 0, 2, 0, 0 ,1,0
1 , 97 , 0.02 , 0,  0.79589844 , 0.61230469, 0.18359375, 5, 0.00000000, 0, 270, 2, 0, 1, 3, 1, 0, 0, 0, 0, 0, 0, 0, 0 ,1,0
1 , 98 , 0.02 , 1,  0.74609375 , 0.58496094, 0.16113281, 5, 0.00000000, 0, 90, 2, 0, 1, 3, 1, 0, 0, 0, 0, 0, 0, 0, 0 ,1,0
1 , 99 , 0.40 , 1,  1.08691406 , 0.95898438, 0.12792969, 5, 0.00000000, 0, 270, 2, 0, 0, 3, 1, 0, 0, 0, 0, 0, 0, 1, 1 ,1,0
1 , 100 , 0.40 , 0,  0.62207031 , 0.44628906, 0.17578125, 5, 0.00000000, 0, 270, 2, 0, 1, 3, 1, 0, 0, 0, 0, 0, 0, 0, 0 ,1,0
1 , 101 , 0.40 , 1,  1.57714844 , 1.45898438, 0.11816406, 5, 0.00000000, 0, 90, 1, 0, 0, 3, 1, 0, 0, 0, 0, 0, 0, 1, 1 ,1,0
1 , 102 , 0.40 , 1,  0.62109375 , 0.44238281, 0.17871094, 5, 0.00000000, 0, 90, 2, 0, 1, 3, 1, 0, 0, 0, 0, 0, 0, 0, 0 ,1,0
1 , 103 , 0.02 , 0,  0.72070312 , 0.54199219, 0.17871094, 5, 0.00000000, 0, 270, 1, 0, 1, 3, 1, 0, 0, 0, 0, 0, 0, 0, 0 ,1,0
1 , 104 , 0.02 , 1,  0.85156250 , 0.67480469, 0.17675781, 5, 0.00000000, 0, 90, 2, 0, 1, 3, 1, 0, 0, 0, 0, 0, 0, 0, 0 ,1,0
1 , 105 , 0.11 , 0,  0.72460938 , 0.57128906, 0.15332031, 5, 0.00000000, 0, 270, 1, 0, 1, 3, 1, 0, 0, 0, 0, 0, 0, 0, 0 ,1,0
1 , 106 , 0.40 , 1,  1.04882812 , 0.94140625, 0.10742188, 5, 0.00000000, 0, 270, 1, 0, 0, 3, 1, 0, 0, 0, 0, 0, 1, 0, 0 ,1,0
1 , 107 , 0.11 , 0,  0.88964844 , 0.73437500, 0.15527344, 5, 0.00000000, 0, 270, 2, 0, 1, 3, 1, 0, 0, 0, 0, 0, 0, 0, 0 ,1,0
1 , 108 , 0.11 , 1,  0.85839844 , 0.67578125, 0.18261719, 5, 0.00000000, 0, 90, 1, 0, 1, 3, 1, 0, 0, 0, 0, 0, 0, 0, 0 ,1,0
1 , 109 , 0.11 , 0,  0.88867188 , 0.80371094, 0.08496094, 5, 0.00000000, 0, 270, 1, 0, 0, 3, 1, 0, 0, 0, 0, 0, 1, 0, 0 ,1,0
1 , 110 , 0.40 , 1,  0.74121094 , 0.58105469, 0.16015625, 5, 0.00000000, 0, 90, 2, 0, 1, 3, 1, 0, 0, 0, 0, 0, 0, 0, 0 ,1,0
1 , 111 , 0.11 , 0,  0.71582031 , 0.54687500, 0.16894531, 5, 0.00000000, 0, 270, 2, 0, 1, 3, 1, 0, 0, 0, 0, 0, 0, 0, 0 ,1,0
1 , 112 , 0.02 , 1,  2.16210938 , 2.01562500, 0.14648438, 5, 0.00000000, 0, 90, 2, 0, 0, 3, 1, 0, 0, 0, 0, 0, 3, 3, 3 ,1,0
1 , 113 , 0.11 , 1,  0.87890625 , 0.70410156, 0.17480469, 5, 0.00000000, 0, 90, 2, 0, 1, 3, 1, 0, 0, 0, 0, 0, 0, 0, 0 ,1,0
1 , 114 , 0.11 , 0,  1.05664062 , 0.92968750, 0.12695312, 5, 0.00000000, 0, 270, 1, 0, 1, 3, 1, 0, 0, 0, 0, 0, 0, 0, 0 ,1,0
1 , 115 , 0.02 , 0,  0.75488281 , 0.56640625, 0.18847656, 5, 0.00000000, 0, 270, 1, 0, 1, 3, 1, 0, 0, 0, 0, 0, 0, 0, 0 ,1,0
1 , 116 , 0.02 , 0,  1.14648438 , 0.99609375, 0.15039062, 5, 0.00000000, 0, 270, 2, 0, 0, 3, 1, 0, 0, 0, 0, 0, 1, 0, 0 ,1,0
1 , 117 , 0.02 , 0,  0.92187500 , 0.79296875, 0.12890625, 5, 0.00000000, 0, 270, 1, 0, 1, 3, 1, 0, 0, 0, 0, 0, 0, 0, 0 ,1,0
1 , 118 , 0.11 , 0,  0.66210938 , 0.50976562, 0.15234375, 5, 0.00000000, 0, 270, 1, 0, 1, 3, 1, 0, 0, 0, 0, 0, 0, 0, 0 ,1,0
1 , 119 , 0.11 , 1,  1.61328125 , 1.44726562, 0.16601562, 5, 0.00000000, 0, 90, 2, 0, 0, 3, 1, 0, 0, 0, 0, 0, 1, 0, 0 ,1,0
1 , 120 , 0.02 , 1,  1.98339844 , 1.83496094, 0.14843750, 5, 4.63378906, 2, 270, 1, 0, 0, 3, 1, 0, 0, 0, 0, 1, 1, 1, 1 ,1,0
1 , 121 , 0.11 , 1,  0.86523438 , 0.74218750, 0.12304688, 5, 0.50488281, 2, 90, 1, 0, 1, 3, 1, 0, 1, 1, 0, 0, 0, 0, 0 ,1,0
1 , 122 , 0.40 , 1,  0.46289062 , 0.32421875, 0.13867188, 5, 0.00000000, 0, 90, 2, 0, 1, 3, 1, 0, 0, 0, 0, 0, 0, 0, 0 ,1,0
1 , 123 , 0.40 , 1,  0.68066406 , 0.54882812, 0.13183594, 5, 0.00000000, 0, 90, 2, 0, 1, 3, 1, 0, 0, 0, 0, 0, 0, 0, 0 ,1,0
1 , 124 , 0.02 , 1,  1.04296875 , 0.91992188, 0.12304688, 5, 0.00000000, 0, 270, 1, 0, 0, 3, 1, 0, 0, 0, 0, 0, 0, 1, 1 ,1,0
1 , 125 , 0.11 , 1,  1.26757812 , 1.14355469, 0.12402344, 5, 0.00000000, 0, 90, 2, 0, 0, 3, 1, 0, 0, 0, 0, 0, 2, 2, 2 ,1,0
1 , 126 , 0.02 , 1,  1.07519531 , 0.92675781, 0.14843750, 5, 0.03320312, 2, 90, 1, 0, 1, 3, 1, 0, 2, 2, 0, 0, 0, 0, 0 ,1,0
1 , 127 , 0.11 , 0,  0.67382812 , 0.52441406, 0.14941406, 5, 0.00000000, 0, 270, 1, 0, 1, 3, 1, 0, 0, 0, 0, 0, 0, 0, 0 ,1,0
1 , 128 , 0.40 , 0,  0.74511719 , 0.61816406, 0.12695312, 5, 0.00000000, 0, 270, 1, 0, 1, 3, 1, 0, 0, 0, 0, 0, 0, 0, 0 ,1,0
1 , 129 , 0.40 , 1,  0.50390625 , 0.32421875, 0.17968750, 5, 0.00000000, 0, 90, 2, 0, 1, 3, 1, 0, 0, 0, 0, 0, 0, 0, 0 ,1,0
1 , 130 , 0.40 , 1,  0.67773438 , 0.50781250, 0.16992188, 5, 0.00000000, 0, 90, 1, 0, 1, 3, 1, 0, 0, 0, 0, 0, 0, 0, 0 ,1,0
1 , 131 , 0.11 , 0,  0.69921875 , 0.55078125, 0.14843750, 5, 0.00000000, 0, 270, 1, 0, 1, 3, 1, 0, 0, 0, 0, 0, 0, 0, 0 ,1,0
1 , 132 , 0.02 , 1,  1.04687500 , 0.90625000, 0.14062500, 5, 0.00000000, 0, 90, 1, 0, 1, 3, 1, 0, 0, 0, 0, 0, 0, 0, 0 ,1,0
1 , 133 , 0.40 , 1,  0.92480469 , 0.77734375, 0.14746094, 5, 0.00000000, 0, 270, 1, 0, 1, 3, 1, 0, 0, 0, 0, 0, 0, 0, 0 ,1,0
1 , 134 , 0.02 , 1,  0.86914062 , 0.72851562, 0.14062500, 5, 0.00000000, 0, 90, 1, 0, 1, 3, 1, 0, 0, 0, 0, 0, 0, 0, 0 ,1,0
1 , 135 , 0.11 , 1,  1.04296875 , 0.89746094, 0.14550781, 5, 0.00000000, 0, 90, 2, 0, 0, 3, 1, 0, 0, 0, 0, 0, 1, 0, 0 ,1,0
1 , 136 , 0.11 , 0,  0.54492188 , 0.41113281, 0.13378906, 5, 0.00000000, 0, 270, 2, 0, 1, 3, 1, 0, 0, 0, 0, 0, 0, 0, 0 ,1,0
1 , 137 , 0.02 , 1,  0.75390625 , 0.61035156, 0.14355469, 5, 0.00000000, 0, 90, 1, 0, 0, 3, 1, 0, 0, 0, 0, 0, 1, 0, 0 ,1,0
1 , 138 , 0.40 , 1,  0.70800781 , 0.57910156, 0.12890625, 5, 1.51855469, 2, 90, 1, 0, 1, 3, 1, 0, 1, 1, 0, 0, 0, 0, 0 ,1,0
1 , 139 , 0.40 , 0,  0.38281250 , 0.26367188, 0.11914062, 5, 0.00000000, 0, 270, 1, 0, 1, 3, 1, 0, 0, 0, 0, 0, 0, 0, 0 ,1,0
1 , 140 , 0.02 , 1,  0.70117188 , 0.58007812, 0.12109375, 5, 0.00000000, 0, 90, 1, 0, 1, 3, 1, 0, 0, 0, 0, 0, 0, 0, 0 ,1,0
1 , 141 , 0.11 , 1,  0.50976562 , 0.36425781, 0.14550781, 5, 0.00000000, 0, 90, 1, 0, 1, 3, 1, 0, 0, 0, 0, 0, 0, 0, 0 ,1,0
1 , 142 , 0.40 , 1,  1.09960938 , 0.95703125, 0.14257812, 5, 0.00000000, 0, 270, 1, 0, 0, 3, 1, 0, 0, 0, 0, 0, 0, 1, 1 ,1,0
1 , 143 , 0.11 , 1,  0.73144531 , 0.57812500, 0.15332031, 5, 0.00000000, 0, 90, 2, 0, 0, 3, 1, 0, 0, 0, 0, 0, 1, 0, 0 ,1,0
1 , 144 , 0.40 , 1,  1.31738281 , 1.17578125, 0.14160156, 5, 0.00000000, 0, 270, 1, 0, 0, 3, 1, 0, 0, 0, 0, 0, 1, 0, 0 ,1,0
1 , 145 , 0.11 , 0,  0.74511719 , 0.64648438, 0.09863281, 5, 0.00000000, 0, 270, 1, 0, 0, 3, 1, 0, 0, 0, 0, 0, 1, 0, 0 ,1,0
1 , 146 , 0.11 , 0,  1.48828125 , 1.34082031, 0.14746094, 5, 0.00000000, 0, 90, 2, 0, 1, 3, 1, 0, 0, 0, 0, 0, 0, 0, 0 ,1,0
1 , 147 , 0.40 , 1,  0.60253906 , 0.46191406, 0.14062500, 5, 0.05566406, 1, 90, 1, 0, 1, 3, 1, 1, 0, 0, 0, 0, 0, 0, 0 ,1,0
1 , 148 , 0.40 , 1,  0.84765625 , 0.70410156, 0.14355469, 5, 0.00000000, 0, 270, 2, 0, 1, 3, 1, 0, 0, 0, 0, 0, 0, 0, 0 ,1,0
1 , 149 , 0.02 , 1,  0.88964844 , 0.78515625, 0.10449219, 5, 0.00000000, 0, 90, 1, 0, 0, 3, 1, 0, 0, 0, 0, 0, 1, 0, 0 ,1,0
1 , 150 , 0.11 , 0,  0.78027344 , 0.59570312, 0.18457031, 5, 0.00000000, 0, 270, 1, 0, 1, 3, 1, 0, 0, 0, 0, 0, 0, 0, 0 ,1,0
1 , 151 , 0.40 , 1,  1.01074219 , 0.91113281, 0.09960938, 5, 0.00000000, 0, 270, 2, 0, 0, 3, 1, 0, 0, 0, 0, 0, 0, 2, 2 ,1,0
1 , 152 , 0.40 , 1,  0.71679688 , 0.61816406, 0.09863281, 5, 0.00000000, 0, 270, 2, 0, 0, 3, 1, 0, 0, 0, 0, 0, 0, 1, 1 ,1,0
1 , 153 , 0.02 , 1,  0.73925781 , 0.62695312, 0.11230469, 5, 0.00000000, 0, 270, 2, 0, 1, 3, 1, 0, 0, 0, 0, 0, 0, 0, 0 ,1,0
1 , 154 , 0.02 , 1,  0.69238281 , 0.56152344, 0.13085938, 5, 0.00000000, 0, 90, 1, 0, 1, 3, 1, 0, 0, 0, 0, 0, 0, 0, 0 ,1,0
1 , 155 , 0.11 , 0,  0.69335938 , 0.54199219, 0.15136719, 5, 4.41992188, 1, 270, 2, 0, 1, 3, 1, 0, 0, 0, 1, 0, 0, 0, 0 ,1,0
1 , 156 , 0.11 , 0,  2.89453125 , 2.75683594, 0.13769531, 5, 4.99316406, 2, 270, 2, 0, 0, 3, 1, 0, 0, 0, 0, 1, 0, 3, 3 ,1,0
1 , 157 , 0.11 , 1,  0.94042969 , 0.77734375, 0.16308594, 5, 0.96679688, 2, 90, 1, 0, 1, 3, 1, 0, 2, 2, 0, 0, 0, 0, 0 ,1,0
1 , 158 , 0.40 , 1,  0.77441406 , 0.62988281, 0.14453125, 5, 0.00000000, 0, 270, 2, 0, 1, 3, 1, 0, 0, 0, 0, 0, 0, 0, 0 ,1,0
1 , 159 , 0.40 , 1,  0.74609375 , 0.62402344, 0.12207031, 5, 0.10742188, 1, 270, 2, 0, 1, 3, 1, 1, 0, 0, 0, 0, 0, 0, 0 ,1,0
1 , 160 , 0.02 , 1,  1.12792969 , 1.00000000, 0.12792969, 5, 0.00000000, 0, 90, 2, 0, 1, 3, 1, 0, 0, 0, 0, 0, 0, 0, 0 ,1,0
1 , 161 , 0.11 , 1,  1.01171875 , 0.84960938, 0.16210938, 5, 0.00000000, 0, 270, 1, 0, 1, 3, 1, 0, 0, 0, 0, 0, 0, 0, 0 ,1,0
1 , 162 , 0.02 , 1,  1.06933594 , 0.93554688, 0.13378906, 5, 0.00000000, 0, 270, 2, 0, 0, 3, 1, 0, 0, 0, 0, 0, 1, 0, 0 ,1,0
1 , 163 , 0.40 , 1,  0.58984375 , 0.45410156, 0.13574219, 5, 0.00000000, 0, 90, 1, 0, 1, 3, 1, 0, 0, 0, 0, 0, 0, 0, 0 ,1,0
1 , 164 , 0.11 , 1,  0.64062500 , 0.47656250, 0.16406250, 5, 0.00000000, 0, 90, 1, 0, 1, 3, 1, 0, 0, 0, 0, 0, 0, 0, 0 ,1,0
1 , 165 , 0.40 , 1,  0.48437500 , 0.34667969, 0.13769531, 5, 2.91210938, 2, 90, 1, 0, 1, 3, 1, 0, 0, 0, 0, 1, 0, 0, 0 ,1,0
1 , 166 , 0.02 , 0,  1.40625000 , 1.24414062, 0.16210938, 5, 0.00000000, 0, 270, 2, 0, 0, 3, 1, 0, 0, 0, 0, 0, 5, 0, 0 ,1,0
1 , 167 , 0.02 , 1,  0.88281250 , 0.73632812, 0.14648438, 5, 0.00000000, 0, 90, 2, 0, 1, 3, 1, 0, 0, 0, 0, 0, 0, 0, 0 ,1,0
1 , 168 , 0.11 , 1,  0.58203125 , 0.42285156, 0.15917969, 5, 0.00000000, 0, 90, 2, 0, 1, 3, 1, 0, 0, 0, 0, 0, 0, 0, 0 ,1,0
1 , 169 , 0.40 , 0,  1.00976562 , 0.83300781, 0.17675781, 5, 0.44193613, 1, 270, 2, 0, 0, 3, 1, 2, 0, 0, 0, 0, 0, 1, 1 ,1,0
1 , 170 , 0.11 , 0,  0.99218750 , 0.79882812, 0.19335938, 5, 0.00000000, 0, 90, 1, 0, 1, 3, 1, 0, 0, 0, 0, 0, 0, 0, 0 ,1,0
1 , 171 , 0.40 , 1,  1.09472656 , 0.91113281, 0.18359375, 5, 4.71777344, 2, 270, 1, 0, 0, 3, 1, 0, 0, 0, 0, 1, 0, 3, 3 ,1,0
1 , 172 , 0.02 , 0,  0.47558594 , 0.23339844, 0.24218750, 5, 0.00000000, 0, 90, 2, 0, 1, 3, 1, 0, 0, 0, 0, 0, 0, 0, 0 ,1,0
1 , 173 , 0.11 , 1,  0.98437500 , 0.86523438, 0.11914062, 5, 0.00000000, 0, 90, 1, 0, 0, 3, 1, 0, 0, 0, 0, 0, 2, 0, 0 ,1,0
1 , 174 , 0.02 , 1,  0.88085938 , 0.69628906, 0.18457031, 5, 0.00000000, 0, 270, 2, 0, 1, 3, 1, 0, 0, 0, 0, 0, 0, 0, 0 ,1,0
1 , 175 , 0.40 , 0,  0.90332031 , 0.73144531, 0.17187500, 5, 0.00000000, 0, 90, 1, 0, 1, 3, 1, 0, 0, 0, 0, 0, 0, 0, 0 ,1,0
1 , 176 , 0.02 , 1,  0.89648438 , 0.74414062, 0.15234375, 5, 3.80957031, 1, 90, 2, 0, 0, 3, 1, 0, 0, 0, 5, 0, 1, 0, 0 ,1,0
1 , 177 , 0.02 , 1,  0.86132812 , 0.63964844, 0.22167969, 5, 0.00000000, 0, 270, 1, 0, 1, 3, 1, 0, 0, 0, 0, 0, 0, 0, 0 ,1,0
1 , 178 , 0.02 , 1,  0.79882812 , 0.66210938, 0.13671875, 5, 0.00000000, 0, 90, 2, 0, 1, 3, 1, 0, 0, 0, 0, 0, 0, 0, 0 ,1,0
1 , 179 , 0.40 , 1,  0.57617188 , 0.43554688, 0.14062500, 5, 0.00000000, 0, 90, 1, 0, 0, 3, 1, 0, 0, 0, 0, 0, 1, 0, 0 ,1,0
1 , 180 , 0.02 , 0,  0.55175781 , 0.41601562, 0.13574219, 5, 0.00000000, 0, 270, 1, 0, 1, 3, 1, 0, 0, 0, 0, 0, 0, 0, 0 ,1,0
1 , 181 , 0.40 , 1,  0.78613281 , 0.62792969, 0.15820312, 5, 0.00000000, 0, 90, 1, 0, 1, 3, 1, 0, 0, 0, 0, 0, 0, 0, 0 ,1,0
1 , 182 , 0.02 , 0,  0.71582031 , 0.51269531, 0.20312500, 5, 1.21875000, 1, 270, 2, 0, 1, 3, 1, 1, 0, 0, 0, 0, 0, 0, 0 ,1,0
1 , 183 , 0.02 , 1,  1.15722656 , 1.00683594, 0.15039062, 5, 0.00000000, 0, 90, 2, 0, 0, 3, 1, 0, 0, 0, 0, 0, 0, 1, 1 ,1,0
1 , 184 , 0.40 , 1,  0.72460938 , 0.54980469, 0.17480469, 5, 0.00000000, 0, 90, 2, 0, 1, 3, 1, 0, 0, 0, 0, 0, 0, 0, 0 ,1,0
1 , 185 , 0.02 , 0,  1.02246094 , 0.87500000, 0.14746094, 5, 0.00000000, 0, 270, 2, 0, 0, 3, 1, 0, 0, 0, 0, 0, 1, 0, 0 ,1,0
1 , 186 , 0.11 , 1,  0.51953125 , 0.36816406, 0.15136719, 5, 0.00000000, 0, 90, 2, 0, 1, 3, 1, 0, 0, 0, 0, 0, 0, 0, 0 ,1,0
1 , 187 , 0.11 , 0,  0.54101562 , 0.40722656, 0.13378906, 5, 3.24804688, 1, 270, 2, 0, 1, 3, 1, 0, 0, 0, 1, 0, 0, 0, 0 ,1,0
1 , 188 , 0.11 , 1,  0.58398438 , 0.43750000, 0.14648438, 5, 3.83593750, 2, 90, 1, 0, 0, 3, 1, 0, 0, 0, 0, 1, 1, 0, 0 ,1,0
1 , 189 , 0.11 , 0,  0.77148438 , 0.59765625, 0.17382812, 5, 0.00000000, 0, 270, 2, 0, 1, 3, 1, 0, 0, 0, 0, 0, 0, 0, 0 ,1,0
1 , 190 , 0.40 , 0,  1.04296875 , 0.86914062, 0.17382812, 5, 0.00000000, 0, 90, 1, 0, 1, 3, 1, 0, 0, 0, 0, 0, 0, 0, 0 ,1,0
1 , 191 , 0.40 , 0,  0.82714844 , 0.69824219, 0.12890625, 5, 0.00000000, 0, 270, 2, 0, 0, 3, 1, 0, 0, 0, 0, 0, 1, 0, 0 ,1,0
1 , 192 , 0.02 , 0,  0.79785156 , 0.58789062, 0.20996094, 5, 0.00000000, 0, 270, 1, 0, 1, 3, 1, 0, 0, 0, 0, 0, 0, 0, 0 ,1,0
1 , 193 , 0.02 , 0,  2.50097656 , 2.44238281, 0.05859375, 5, 0.16015625, 1, 90, 2, 0, 0, 0, 1, 1, 3, 0, -1, -1, -1, -1, -1 ,1,0
1 , 194 , 0.11 , 0,  1.14746094 , 0.97851562, 0.16894531, 5, 0.66992188, 2, 90, 2, 0, 0, 0, 1, 0, 1, 2, -1, -1, -1, -1, -1 ,1,0
1 , 195 , 0.40 , 1,  2.55566406 , 2.37011719, 0.18554688, 5, 2.15722656, 1, 90, 1, 0, 0, 0, 1, 1, 0, 0, -1, -1, -1, -1, -1 ,1,0
1 , 196 , 0.02 , 1,  3.40527344 , 3.29785156, 0.10742188, 5, 1.73144531, 1, 270, 2, 0, 0, 0, 1, 2, 0, 0, -1, -1, -1, -1, -1 ,1,0
1 , 197 , 0.11 , 1,  1.37597656 , 1.19824219, 0.17773438, 5, 0.00000000, 0, 90, 1, 0, 1, 0, 1, 0, 0, 0, -1, -1, -1, -1, -1 ,1,0
1 , 198 , 0.40 , 1,  2.53515625 , 2.42285156, 0.11230469, 5, 2.24023438, 1, 270, 2, 0, 0, 0, 1, 1, 0, 0, -1, -1, -1, -1, -1 ,1,0
1 , 199 , 0.40 , 0,  2.66210938 , 2.41308594, 0.24902344, 5, 0.00000000, 0, 270, 1, 0, 1, 0, 1, 0, 0, 0, -1, -1, -1, -1, -1 ,1,0
1 , 200 , 0.02 , 0,  2.62109375 , 2.47460938, 0.14648438, 5, 0.00000000, 0, 270, 1, 0, 1, 0, 1, 0, 0, 0, -1, -1, -1, -1, -1 ,1,0
1 , 201 , 0.11 , 0,  2.30957031 , 2.14453125, 0.16503906, 5, 1.57617188, 1, 90, 2, 0, 0, 0, 1, 2, 0, 0, -1, -1, -1, -1, -1 ,1,0
1 , 202 , 0.02 , 1,  1.53906250 , 1.38183594, 0.15722656, 5, 0.65136719, 1, 90, 1, 0, 0, 0, 1, 2, 0, 0, -1, -1, -1, -1, -1 ,1,0
1 , 203 , 0.11 , 1,  2.83398438 , 2.66894531, 0.16503906, 5, 0.04882812, 1, 270, 2, 0, 0, 0, 1, 3, 0, 0, -1, -1, -1, -1, -1 ,1,0
1 , 204 , 0.02 , 1,  2.65429688 , 2.46289062, 0.19140625, 5, 0.03710938, 1, 90, 1, 0, 0, 0, 1, 3, 1, 0, -1, -1, -1, -1, -1 ,1,0
1 , 205 , 0.02 , 1,  2.31933594 , 2.12988281, 0.18945312, 5, 0.01269531, 1, 270, 2, 0, 0, 0, 1, 4, 0, 0, -1, -1, -1, -1, -1 ,1,0
1 , 206 , 0.40 , 1,  1.18554688 , 1.06640625, 0.11914062, 5, 0.00000000, 0, 270, 2, 0, 1, 0, 1, 0, 0, 0, -1, -1, -1, -1, -1 ,1,0
1 , 207 , 0.11 , 0,  1.57519531 , 1.48828125, 0.08691406, 5, 1.35253906, 1, 270, 1, 0, 0, 0, 1, 1, 0, 0, -1, -1, -1, -1, -1 ,1,0
1 , 208 , 0.02 , 1,  1.55859375 , 1.40234375, 0.15625000, 5, 1.23632812, 1, 90, 1, 0, 0, 0, 1, 1, 0, 0, -1, -1, -1, -1, -1 ,1,0
1 , 209 , 0.40 , 1,  1.12011719 , 0.99707031, 0.12304688, 5, 0.00000000, 0, 270, 2, 0, 1, 0, 1, 0, 0, 0, -1, -1, -1, -1, -1 ,1,0
1 , 210 , 0.11 , 1,  0.85253906 , 0.69531250, 0.15722656, 5, 0.00000000, 0, 270, 2, 0, 1, 0, 1, 0, 0, 0, -1, -1, -1, -1, -1 ,1,0
1 , 211 , 0.40 , 1,  1.33105469 , 1.19628906, 0.13476562, 5, 0.00000000, 0, 90, 1, 0, 1, 0, 1, 0, 0, 0, -1, -1, -1, -1, -1 ,1,0
1 , 212 , 0.11 , 1,  1.24511719 , 1.07226562, 0.17285156, 5, 1.00488281, 1, 90, 1, 0, 0, 0, 1, 1, 0, 0, -1, -1, -1, -1, -1 ,1,0
1 , 213 , 0.02 , 1,  1.39550781 , 1.25097656, 0.14453125, 5, 0.00000000, 0, 270, 2, 0, 1, 0, 1, 0, 0, 0, -1, -1, -1, -1, -1 ,1,0
1 , 214 , 0.40 , 1,  0.93457031 , 0.83300781, 0.10156250, 5, 0.00000000, 0, 270, 2, 0, 1, 0, 1, 0, 0, 0, -1, -1, -1, -1, -1 ,1,0
1 , 215 , 0.11 , 1,  1.13769531 , 1.03027344, 0.10742188, 5, 0.00000000, 0, 90, 1, 0, 1, 0, 1, 0, 0, 0, -1, -1, -1, -1, -1 ,1,0
1 , 216 , 0.02 , 0,  1.98828125 , 1.69726562, 0.29101562, 5, 0.00000000, 0, 270, 1, 0, 1, 0, 1, 0, 0, 0, -1, -1, -1, -1, -1 ,1,0
1 , 217 , 0.11 , 1,  1.43164062 , 1.27441406, 0.15722656, 5, 0.00000000, 0, 270, 2, 0, 1, 0, 1, 0, 0, 0, -1, -1, -1, -1, -1 ,1,0
1 , 218 , 0.40 , 1,  1.00292969 , 0.85351562, 0.14941406, 5, 0.61816406, 1, 90, 1, 0, 0, 0, 1, 2, 0, 0, -1, -1, -1, -1, -1 ,1,0
1 , 219 , 0.40 , 1,  1.19238281 , 1.01562500, 0.17675781, 5, 0.00000000, 0, 270, 2, 0, 1, 0, 1, 0, 0, 0, -1, -1, -1, -1, -1 ,1,0
1 , 220 , 0.40 , 1,  0.87695312 , 0.70214844, 0.17480469, 5, 0.00000000, 0, 90, 1, 0, 1, 0, 1, 0, 0, 0, -1, -1, -1, -1, -1 ,1,0
1 , 221 , 0.40 , 1,  1.11132812 , 0.97460938, 0.13671875, 5, 0.00000000, 0, 270, 2, 0, 1, 0, 1, 0, 0, 0, -1, -1, -1, -1, -1 ,1,0
1 , 222 , 0.11 , 1,  1.86425781 , 1.71582031, 0.14843750, 5, 0.67871094, 1, 90, 1, 0, 0, 0, 1, 5, 0, 0, -1, -1, -1, -1, -1 ,1,0
1 , 223 , 0.02 , 1,  2.24707031 , 2.09667969, 0.15039062, 5, 1.76367188, 1, 90, 1, 0, 0, 0, 1, 1, 0, 0, -1, -1, -1, -1, -1 ,1,0
1 , 224 , 0.11 , 1,  0.95996094 , 0.76171875, 0.19824219, 5, 0.00000000, 0, 90, 1, 0, 1, 0, 1, 0, 0, 0, -1, -1, -1, -1, -1 ,1,0
1 , 225 , 0.40 , 1,  0.90429688 , 0.72851562, 0.17578125, 5, 0.00000000, 0, 90, 1, 0, 1, 0, 1, 0, 0, 0, -1, -1, -1, -1, -1 ,1,0
1 , 226 , 0.11 , 1,  0.84960938 , 0.71289062, 0.13671875, 5, 0.58593750, 1, 90, 1, 0, 0, 0, 1, 1, 0, 0, -1, -1, -1, -1, -1 ,1,0
1 , 227 , 0.40 , 1,  0.92187500 , 0.79492188, 0.12695312, 5, 0.00000000, 0, 90, 1, 0, 1, 0, 1, 0, 0, 0, -1, -1, -1, -1, -1 ,1,0
1 , 228 , 0.11 , 1,  2.01367188 , 1.83203125, 0.18164062, 5, 0.82714844, 1, 90, 1, 0, 0, 0, 1, 4, 0, 0, -1, -1, -1, -1, -1 ,1,0
1 , 229 , 0.02 , 1,  1.68750000 , 1.52636719, 0.16113281, 5, 1.26953125, 1, 90, 1, 0, 0, 0, 1, 2, 0, 0, -1, -1, -1, -1, -1 ,1,0
1 , 230 , 0.11 , 1,  1.64746094 , 1.50195312, 0.14550781, 5, 0.00000000, 0, 90, 1, 0, 1, 0, 1, 0, 0, 0, -1, -1, -1, -1, -1 ,1,0
1 , 231 , 0.02 , 0,  1.26269531 , 1.13183594, 0.13085938, 5, 0.21289062, 1, 270, 1, 0, 0, 0, 1, 1, 1, 0, -1, -1, -1, -1, -1 ,1,0
1 , 232 , 0.02 , 0,  2.67187500 , 2.51367188, 0.15820312, 5, 2.04101562, 1, 90, 2, 0, 0, 0, 1, 2, 0, 0, -1, -1, -1, -1, -1 ,1,0
1 , 233 , 0.40 , 1,  0.65527344 , 0.46386719, 0.19140625, 5, 0.00000000, 0, 90, 1, 0, 1, 0, 1, 0, 0, 0, -1, -1, -1, -1, -1 ,1,0
1 , 234 , 0.40 , 1,  0.83691406 , 0.66992188, 0.16699219, 5, 0.58593750, 1, 90, 1, 0, 0, 0, 1, 1, 0, 0, -1, -1, -1, -1, -1 ,1,0
1 , 235 , 0.11 , 1,  0.89257812 , 0.66503906, 0.22753906, 5, 0.00000000, 0, 90, 1, 0, 1, 0, 1, 0, 0, 0, -1, -1, -1, -1, -1 ,1,0
1 , 236 , 0.02 , 0,  1.00292969 , 0.79492188, 0.20800781, 5, 0.00000000, 0, 270, 1, 0, 1, 0, 1, 0, 0, 0, -1, -1, -1, -1, -1 ,1,0
1 , 237 , 0.02 , 0,  1.62304688 , 1.48339844, 0.13964844, 5, 1.19042969, 1, 270, 1, 0, 0, 0, 1, 1, 0, 0, -1, -1, -1, -1, -1 ,1,0
1 , 238 , 0.11 , 1,  1.50781250 , 1.35742188, 0.15039062, 5, 0.00000000, 0, 90, 1, 0, 1, 0, 1, 0, 0, 0, -1, -1, -1, -1, -1 ,1,0
1 , 239 , 0.02 , 0,  1.25976562 , 1.09179688, 0.16796875, 5, 0.00000000, 0, 270, 1, 0, 1, 0, 1, 0, 0, 0, -1, -1, -1, -1, -1 ,1,0
1 , 240 , 0.02 , 1,  0.87500000 , 0.66796875, 0.20703125, 5, 0.00000000, 0, 270, 2, 0, 1, 0, 1, 0, 0, 0, -1, -1, -1, -1, -1 ,1,0
1 , 241 , 0.11 , 0,  1.55664062 , 1.45605469, 0.10058594, 5, 1.37890625, 1, 270, 1, 0, 0, 0, 1, 1, 0, 0, -1, -1, -1, -1, -1 ,1,0
1 , 242 , 0.40 , 1,  0.94238281 , 0.76464844, 0.17773438, 5, 0.00000000, 0, 90, 1, 0, 1, 0, 1, 0, 0, 0, -1, -1, -1, -1, -1 ,1,0
1 , 243 , 0.02 , 1,  1.51562500 , 1.31933594, 0.19628906, 5, 0.00000000, 0, 90, 1, 0, 1, 0, 1, 0, 0, 0, -1, -1, -1, -1, -1 ,1,0
1 , 244 , 0.02 , 1,  1.21289062 , 1.02246094, 0.19042969, 5, 0.75000000, 1, 90, 1, 0, 0, 0, 1, 2, 0, 0, -1, -1, -1, -1, -1 ,1,0
1 , 245 , 0.02 , 0,  1.60253906 , 1.41992188, 0.18261719, 5, 1.00976562, 1, 270, 1, 0, 0, 0, 1, 1, 0, 0, -1, -1, -1, -1, -1 ,1,0
1 , 246 , 0.40 , 1,  1.16992188 , 1.01269531, 0.15722656, 5, 0.00000000, 0, 270, 2, 0, 1, 0, 1, 0, 0, 0, -1, -1, -1, -1, -1 ,1,0
1 , 247 , 0.11 , 0,  1.52050781 , 1.30761719, 0.21289062, 5, 0.25683594, 1, 90, 2, 0, 0, 0, 1, 12, 0, 0, -1, -1, -1, -1, -1 ,1,0
1 , 248 , 0.11 , 1,  1.33789062 , 1.17480469, 0.16308594, 5, 1.09667969, 1, 270, 2, 0, 0, 0, 1, 1, 0, 0, -1, -1, -1, -1, -1 ,1,0
1 , 249 , 0.40 , 1,  1.10351562 , 0.92187500, 0.18164062, 5, 0.70703125, 1, 90, 1, 0, 0, 0, 1, 1, 0, 0, -1, -1, -1, -1, -1 ,1,0
1 , 250 , 0.40 , 1,  1.18847656 , 1.07421875, 0.11425781, 5, 0.00000000, 0, 270, 2, 0, 1, 0, 1, 0, 0, 0, -1, -1, -1, -1, -1 ,1,0
1 , 251 , 0.11 , 1,  1.18554688 , 1.04785156, 0.13769531, 5, 0.88671875, 1, 270, 2, 0, 0, 0, 1, 1, 0, 0, -1, -1, -1, -1, -1 ,1,0
1 , 252 , 0.02 , 1,  1.80468750 , 1.55371094, 0.25097656, 5, 1.39355469, 1, 90, 1, 0, 0, 0, 1, 2, 0, 0, -1, -1, -1, -1, -1 ,1,0
1 , 253 , 0.11 , 0,  1.34667969 , 1.21972656, 0.12695312, 5, 0.00000000, 0, 90, 2, 0, 1, 0, 1, 0, 0, 0, -1, -1, -1, -1, -1 ,1,0
1 , 254 , 0.11 , 1,  1.12695312 , 0.99609375, 0.13085938, 5, 0.00000000, 0, 270, 2, 0, 1, 0, 1, 0, 0, 0, -1, -1, -1, -1, -1 ,1,0
1 , 255 , 0.11 , 1,  1.58007812 , 1.41210938, 0.16796875, 5, 1.12109375, 1, 270, 2, 0, 0, 0, 1, 1, 0, 0, -1, -1, -1, -1, -1 ,1,0
1 , 256 , 0.02 , 0,  1.47265625 , 1.34960938, 0.12304688, 5, 0.00000000, 0, 90, 2, 0, 1, 0, 1, 0, 0, 0, -1, -1, -1, -1, -1 ,1,0
1 , 257 , 0.40 , 1,  0.69921875 , 0.51953125, 0.17968750, 5, 0.26562500, 2, 90, 1, 0, 0, 0, 1, 0, 1, 2, -1, -1, -1, -1, -1 ,1,0
1 , 258 , 0.11 , 1,  1.62988281 , 1.49902344, 0.13085938, 5, 0.62207031, 1, 270, 2, 0, 0, 0, 1, 2, 0, 0, -1, -1, -1, -1, -1 ,1,0
1 , 259 , 0.40 , 1,  1.28320312 , 1.12109375, 0.16210938, 5, 0.00000000, 0, 270, 2, 0, 1, 0, 1, 0, 0, 0, -1, -1, -1, -1, -1 ,1,0
1 , 260 , 0.40 , 1,  0.97949219 , 0.71582031, 0.26367188, 5, 0.61718750, 1, 270, 2, 0, 0, 0, 1, 1, 0, 0, -1, -1, -1, -1, -1 ,1,0
1 , 261 , 0.02 , 1,  1.79003906 , 1.58789062, 0.20214844, 5, 0.00000000, 0, 90, 1, 0, 1, 0, 1, 0, 0, 0, -1, -1, -1, -1, -1 ,1,0
1 , 262 , 0.40 , 1,  0.91308594 , 0.75488281, 0.15820312, 5, 0.00000000, 0, 270, 2, 0, 1, 0, 1, 0, 0, 0, -1, -1, -1, -1, -1 ,1,0
1 , 263 , 0.40 , 1,  0.77441406 , 0.64648438, 0.12792969, 5, 0.53808594, 1, 90, 1, 0, 0, 0, 1, 1, 0, 0, -1, -1, -1, -1, -1 ,1,0
1 , 264 , 0.02 , 1,  1.96484375 , 1.65136719, 0.31347656, 5, 0.00000000, 0, 90, 1, 0, 1, 0, 1, 0, 0, 0, -1, -1, -1, -1, -1 ,1,0
1 , 265 , 0.02 , 1,  1.50097656 , 1.34179688, 0.15917969, 5, 0.60937500, 1, 270, 2, 0, 0, 0, 1, 2, 0, 0, -1, -1, -1, -1, -1 ,1,0
1 , 266 , 0.11 , 1,  0.96093750 , 0.86035156, 0.10058594, 5, 0.72167969, 1, 270, 2, 0, 0, 0, 1, 1, 0, 0, -1, -1, -1, -1, -1 ,1,0
1 , 267 , 0.02 , 1,  1.55566406 , 1.42089844, 0.13476562, 5, 1.30957031, 1, 270, 2, 1, 0, 0, 1, 1, 0, 0, -1, -1, -1, -1, -1 ,1,0
1 , 268 , 0.40 , 1,  0.85058594 , 0.64257812, 0.20800781, 5, 0.00195312, 1, 270, 2, 0, 0, 0, 1, 2, 0, 0, -1, -1, -1, -1, -1 ,1,0
1 , 269 , 0.40 , 1,  2.34375000 , 2.25097656, 0.09277344, 5, 0.68652344, 1, 90, 1, 0, 0, 0, 1, 5, 0, 0, -1, -1, -1, -1, -1 ,1,0
1 , 270 , 0.40 , 1,  1.17187500 , 1.07519531, 0.09667969, 5, 0.94628906, 1, 270, 2, 0, 0, 0, 1, 2, 0, 0, -1, -1, -1, -1, -1 ,1,0
1 , 271 , 0.11 , 0,  3.47167969 , 3.30957031, 0.16210938, 5, 3.11914062, 1, 270, 1, 0, 0, 0, 1, 1, 0, 0, -1, -1, -1, -1, -1 ,1,0
1 , 272 , 0.40 , 1,  0.76171875 , 0.62890625, 0.13281250, 5, 0.00000000, 0, 90, 1, 0, 1, 0, 1, 0, 0, 0, -1, -1, -1, -1, -1 ,1,0
1 , 273 , 0.11 , 1,  1.91406250 , 1.78613281, 0.12792969, 5, 0.00000000, 0, 90, 1, 0, 1, 0, 1, 0, 0, 0, -1, -1, -1, -1, -1 ,1,0
1 , 274 , 0.11 , 1,  0.88574219 , 0.76074219, 0.12500000, 5, 0.00000000, 0, 270, 2, 0, 1, 0, 1, 0, 0, 0, -1, -1, -1, -1, -1 ,1,0
1 , 275 , 0.02 , 1,  1.28515625 , 1.15429688, 0.13085938, 5, 0.00000000, 0, 90, 1, 0, 1, 0, 1, 0, 0, 0, -1, -1, -1, -1, -1 ,1,0
1 , 276 , 0.02 , 1,  1.26464844 , 1.13183594, 0.13281250, 5, 1.00292969, 1, 270, 2, 0, 0, 0, 1, 1, 0, 0, -1, -1, -1, -1, -1 ,1,0
1 , 277 , 0.11 , 0,  1.11230469 , 0.98144531, 0.13085938, 5, 0.86328125, 1, 270, 1, 0, 0, 0, 1, 1, 0, 0, -1, -1, -1, -1, -1 ,1,0
1 , 278 , 0.11 , 1,  0.97363281 , 0.83203125, 0.14160156, 5, 0.00000000, 0, 270, 2, 0, 1, 0, 1, 0, 0, 0, -1, -1, -1, -1, -1 ,1,0
1 , 279 , 0.11 , 0,  1.41113281 , 1.25781250, 0.15332031, 5, 0.00000000, 0, 90, 2, 0, 1, 0, 1, 0, 0, 0, -1, -1, -1, -1, -1 ,1,0
1 , 280 , 0.02 , 0,  1.35449219 , 1.17480469, 0.17968750, 5, 1.08789062, 1, 270, 1, 0, 0, 0, 1, 1, 0, 0, -1, -1, -1, -1, -1 ,1,0
1 , 281 , 0.40 , 1,  1.09472656 , 0.97851562, 0.11621094, 5, 0.00000000, 0, 90, 1, 0, 1, 0, 1, 0, 0, 0, -1, -1, -1, -1, -1 ,1,0
1 , 282 , 0.40 , 1,  0.75585938 , 0.61914062, 0.13671875, 5, 0.00000000, 0, 90, 1, 0, 1, 0, 1, 0, 0, 0, -1, -1, -1, -1, -1 ,1,0
1 , 283 , 0.40 , 1,  1.09277344 , 0.81152344, 0.28125000, 5, 0.64550781, 1, 270, 2, 0, 0, 0, 1, 2, 0, 0, -1, -1, -1, -1, -1 ,1,0
1 , 284 , 0.02 , 1,  2.31347656 , 2.11523438, 0.19824219, 5, 1.66503906, 1, 90, 1, 0, 0, 0, 1, 2, 0, 0, -1, -1, -1, -1, -1 ,1,0
1 , 285 , 0.02 , 0,  1.25976562 , 1.14550781, 0.11425781, 5, 0.76855469, 2, 270, 1, 0, 0, 0, 1, 0, 1, 2, -1, -1, -1, -1, -1 ,1,0
1 , 286 , 0.02 , 0,  1.87304688 , 1.65332031, 0.21972656, 5, 0.00000000, 0, 90, 2, 0, 1, 0, 1, 0, 0, 0, -1, -1, -1, -1, -1 ,1,0
1 , 287 , 0.11 , 1,  0.85351562 , 0.73144531, 0.12207031, 5, 0.00000000, 0, 270, 2, 0, 1, 0, 1, 0, 0, 0, -1, -1, -1, -1, -1 ,1,0
1 , 288 , 0.40 , 1,  1.28808594 , 1.21289062, 0.07519531, 5, 1.12011719, 1, 270, 2, 0, 0, 0, 1, 1, 0, 0, -1, -1, -1, -1, -1 ,1,0
1 , 289 , 0.40 , 1,  0.80566406 , 0.69238281, 0.11328125, 5, 0.00000000, 0, 270, 2, 0, 1, 5, 1, 0, 0, 0, 0, 0, 0, 0, 0 ,1,0
1 , 290 , 0.11 , 1,  1.34179688 , 1.24902344, 0.09277344, 5, 0.00000000, 0, 90, 1, 0, 0, 5, 1, 0, 0, 0, 0, 0, 4, 0, 0 ,1,0
1 , 291 , 0.02 , 0,  0.74707031 , 0.60937500, 0.13769531, 5, 0.00000000, 0, 90, 2, 0, 1, 5, 1, 0, 0, 0, 0, 0, 0, 0, 0 ,1,0
1 , 292 , 0.02 , 1,  0.99804688 , 0.87890625, 0.11914062, 5, 0.00000000, 0, 90, 1, 0, 0, 5, 1, 0, 0, 0, 0, 0, 1, 1, 1 ,1,0
1 , 293 , 0.40 , 0,  0.82421875 , 0.65917969, 0.16503906, 5, 0.00000000, 0, 270, 1, 0, 1, 5, 1, 0, 0, 0, 0, 0, 0, 0, 0 ,1,0
1 , 294 , 0.11 , 1,  0.58496094 , 0.45214844, 0.13281250, 5, 2.66601562, 2, 90, 1, 0, 0, 5, 1, 0, 0, 0, 0, 2, 1, 0, 0 ,1,0
1 , 295 , 0.02 , 1,  0.54687500 , 0.40917969, 0.13769531, 5, 4.61035156, 1, 90, 1, 0, 1, 5, 1, 0, 0, 0, 2, 0, 0, 0, 0 ,1,0
1 , 296 , 0.40 , 0,  0.99511719 , 0.87207031, 0.12304688, 5, 0.00000000, 0, 90, 1, 0, 1, 5, 1, 0, 0, 0, 0, 0, 0, 0, 0 ,1,0
1 , 297 , 0.02 , 0,  0.88281250 , 0.76953125, 0.11328125, 5, 0.00000000, 0, 270, 1, 0, 1, 5, 1, 0, 0, 0, 0, 0, 0, 0, 0 ,1,0
1 , 298 , 0.02 , 1,  0.60937500 , 0.48730469, 0.12207031, 5, 0.00000000, 0, 90, 1, 0, 1, 5, 1, 0, 0, 0, 0, 0, 0, 0, 0 ,1,0
1 , 299 , 0.11 , 0,  0.76757812 , 0.65234375, 0.11523438, 5, 0.00000000, 0, 90, 2, 0, 1, 5, 1, 0, 0, 0, 0, 0, 0, 0, 0 ,1,0
1 , 300 , 0.02 , 0,  0.57910156 , 0.45605469, 0.12304688, 5, 0.00000000, 0, 90, 2, 0, 1, 5, 1, 0, 0, 0, 0, 0, 0, 0, 0 ,1,0
1 , 301 , 0.40 , 1,  0.77441406 , 0.66894531, 0.10546875, 5, 0.00000000, 0, 270, 2, 0, 1, 5, 1, 0, 0, 0, 0, 0, 0, 0, 0 ,1,0
1 , 302 , 0.40 , 1,  0.73535156 , 0.59960938, 0.13574219, 5, 0.00000000, 0, 90, 1, 0, 0, 5, 1, 0, 0, 0, 0, 0, 1, 0, 0 ,1,0
1 , 303 , 0.11 , 0,  0.58691406 , 0.45410156, 0.13281250, 5, 0.00000000, 0, 270, 2, 0, 1, 5, 1, 0, 0, 0, 0, 0, 0, 0, 0 ,1,0
1 , 304 , 0.40 , 0,  0.71093750 , 0.57617188, 0.13476562, 5, 0.00000000, 0, 270, 2, 0, 1, 5, 1, 0, 0, 0, 0, 0, 0, 0, 0 ,1,0
1 , 305 , 0.11 , 1,  0.89843750 , 0.74511719, 0.15332031, 5, 0.00000000, 0, 90, 2, 0, 1, 5, 1, 0, 0, 0, 0, 0, 0, 0, 0 ,1,0
1 , 306 , 0.11 , 1,  0.72851562 , 0.61718750, 0.11132812, 5, 0.00000000, 0, 90, 2, 0, 1, 5, 1, 0, 0, 0, 0, 0, 0, 0, 0 ,1,0
1 , 307 , 0.11 , 1,  0.87695312 , 0.76464844, 0.11230469, 5, 0.12207031, 1, 270, 2, 0, 0, 5, 1, 1, 0, 0, 0, 0, 0, 1, 1 ,1,0
1 , 308 , 0.11 , 0,  1.03027344 , 0.86816406, 0.16210938, 5, 0.00000000, 0, 90, 1, 0, 0, 5, 1, 0, 0, 0, 0, 0, 1, 1, 1 ,1,0
1 , 309 , 0.40 , 1,  0.75000000 , 0.60546875, 0.14453125, 5, 0.00000000, 0, 270, 2, 0, 1, 5, 1, 0, 0, 0, 0, 0, 0, 0, 0 ,1,0
1 , 310 , 0.40 , 1,  0.71191406 , 0.58398438, 0.12792969, 5, 1.80664062, 1, 270, 2, 0, 1, 5, 1, 1, 0, 0, 1, 0, 0, 0, 0 ,1,0
1 , 311 , 0.02 , 0,  0.75585938 , 0.61230469, 0.14355469, 5, 0.00000000, 0, 270, 1, 0, 1, 5, 1, 0, 0, 0, 0, 0, 0, 0, 0 ,1,0
1 , 312 , 0.40 , 1,  0.50292969 , 0.33496094, 0.16796875, 5, 1.69628906, 2, 90, 2, 0, 1, 5, 1, 0, 1, 1, 0, 2, 0, 0, 0 ,1,0
1 , 313 , 0.02 , 0,  0.95898438 , 0.85156250, 0.10742188, 5, 0.00000000, 0, 270, 2, 0, 1, 5, 1, 0, 0, 0, 0, 0, 0, 0, 0 ,1,0
1 , 314 , 0.11 , 1,  0.79199219 , 0.68359375, 0.10839844, 5, 1.77929688, 1, 90, 2, 0, 1, 5, 1, 4, 0, 0, 0, 0, 0, 0, 0 ,1,0
1 , 315 , 0.40 , 1,  0.71093750 , 0.58691406, 0.12402344, 5, 0.00000000, 0, 90, 1, 0, 1, 5, 1, 0, 0, 0, 0, 0, 0, 0, 0 ,1,0
1 , 316 , 0.02 , 0,  0.82910156 , 0.72167969, 0.10742188, 5, 0.00000000, 0, 270, 1, 0, 1, 5, 1, 0, 0, 0, 0, 0, 0, 0, 0 ,1,0
1 , 317 , 0.11 , 0,  0.69628906 , 0.52832031, 0.16796875, 5, 0.00000000, 0, 270, 1, 0, 1, 5, 1, 0, 0, 0, 0, 0, 0, 0, 0 ,1,0
1 , 318 , 0.11 , 0,  0.41601562 , 0.24414062, 0.17187500, 5, 6.77148438, 1, 270, 2, 0, 1, 5, 1, 0, 0, 0, 2, 0, 0, 0, 0 ,1,0
1 , 319 , 0.11 , 1,  0.88085938 , 0.72949219, 0.15136719, 5, 1.70507812, 2, 270, 1, 0, 0, 5, 1, 0, 1, 1, 0, 0, 1, 0, 0 ,1,0
1 , 320 , 0.02 , 1,  0.80175781 , 0.62402344, 0.17773438, 5, 0.00000000, 0, 90, 2, 0, 1, 5, 1, 0, 0, 0, 0, 0, 0, 0, 0 ,1,0
1 , 321 , 0.11 , 0,  1.03125000 , 0.82910156, 0.20214844, 5, 0.00000000, 0, 270, 1, 0, 1, 5, 1, 0, 0, 0, 0, 0, 0, 0, 0 ,1,0
1 , 322 , 0.11 , 1,  0.75000000 , 0.64160156, 0.10839844, 5, 2.44140625, 1, 270, 2, 0, 0, 5, 1, 0, 0, 0, 1, 0, 0, 2, 2 ,1,0
1 , 323 , 0.02 , 1,  1.17089844 , 1.06835938, 0.10253906, 5, 0.00000000, 0, 270, 1, 0, 0, 5, 1, 0, 0, 0, 0, 0, 0, 3, 3 ,1,0
1 , 324 , 0.11 , 1,  0.98828125 , 0.87207031, 0.11621094, 5, 0.00000000, 0, 270, 1, 0, 1, 5, 1, 0, 0, 0, 0, 0, 0, 0, 0 ,1,0
1 , 325 , 0.40 , 1,  0.78710938 , 0.64257812, 0.14453125, 5, 3.34082031, 1, 270, 2, 0, 1, 5, 1, 0, 0, 0, 4, 0, 0, 0, 0 ,1,0
1 , 326 , 0.40 , 1,  1.12402344 , 0.94335938, 0.18066406, 5, 0.00000000, 0, 90, 2, 0, 0, 5, 1, 0, 0, 0, 0, 0, 0, 1, 1 ,1,0
1 , 327 , 0.11 , 0,  1.30468750 , 1.19238281, 0.11230469, 5, 6.40332031, 1, 270, 2, 0, 0, 5, 1, 0, 0, 0, 1, 0, 3, 0, 0 ,1,0
1 , 328 , 0.40 , 1,  1.06738281 , 0.93066406, 0.13671875, 5, 5.98535156, 2, 90, 2, 0, 1, 5, 1, 0, 0, 0, 0, 1, 0, 0, 0 ,1,0
1 , 329 , 0.02 , 0,  1.18359375 , 1.04394531, 0.13964844, 5, 0.00000000, 0, 90, 1, 0, 0, 5, 1, 0, 0, 0, 0, 0, 2, 0, 0 ,1,0
1 , 330 , 0.40 , 1,  0.75488281 , 0.58398438, 0.17089844, 5, 0.00000000, 0, 90, 2, 0, 1, 5, 1, 0, 0, 0, 0, 0, 0, 0, 0 ,1,0
1 , 331 , 0.02 , 1,  1.14453125 , 0.99023438, 0.15429688, 5, 0.00000000, 0, 90, 1, 0, 0, 5, 1, 0, 0, 0, 0, 0, 2, 0, 0 ,1,0
1 , 332 , 0.11 , 0,  1.19433594 , 1.05175781, 0.14257812, 5, 3.42871094, 2, 90, 1, 0, 0, 5, 1, 0, 0, 0, 0, 2, 0, 2, 2 ,1,0
1 , 333 , 0.40 , 1,  1.10449219 , 0.99316406, 0.11132812, 5, 0.00000000, 0, 90, 1, 0, 0, 5, 1, 0, 0, 0, 0, 0, 1, 0, 0 ,1,0
1 , 334 , 0.11 , 0,  0.40234375 , 0.22656250, 0.17578125, 5, 0.00000000, 0, 270, 2, 0, 1, 5, 1, 0, 0, 0, 0, 0, 0, 0, 0 ,1,0
1 , 335 , 0.11 , 0,  0.59082031 , 0.41406250, 0.17675781, 5, 5.73242188, 2, 270, 1, 0, 1, 5, 1, 0, 0, 0, 0, 1, 0, 0, 0 ,1,0
1 , 336 , 0.02 , 1,  0.64257812 , 0.50683594, 0.13574219, 5, 0.00000000, 0, 90, 2, 0, 0, 5, 1, 0, 0, 0, 0, 0, 1, 0, 0 ,1,0
1 , 337 , 0.40 , 1,  0.91601562 , 0.79003906, 0.12597656, 5, 0.00000000, 0, 270, 1, 0, 0, 5, 1, 0, 0, 0, 0, 0, 1, 0, 0 ,1,0
1 , 338 , 0.11 , 1,  1.15820312 , 1.02246094, 0.13574219, 5, 0.00000000, 0, 270, 2, 0, 0, 5, 1, 0, 0, 0, 0, 0, 1, 0, 0 ,1,0
1 , 339 , 0.11 , 1,  0.46386719 , 0.27832031, 0.18554688, 5, 6.38378906, 1, 270, 1, 0, 1, 5, 1, 0, 0, 0, 3, 0, 0, 0, 0 ,1,0
1 , 340 , 0.11 , 0,  0.61523438 , 0.42871094, 0.18652344, 5, 0.00000000, 0, 90, 2, 0, 0, 5, 1, 0, 0, 0, 0, 0, 1, 0, 0 ,1,0
1 , 341 , 0.02 , 0,  0.82519531 , 0.67871094, 0.14648438, 5, 0.00000000, 0, 270, 1, 0, 0, 5, 1, 0, 0, 0, 0, 0, 1, 0, 0 ,1,0
1 , 342 , 0.02 , 0,  0.84472656 , 0.65820312, 0.18652344, 5, 0.00000000, 0, 270, 1, 0, 1, 5, 1, 0, 0, 0, 0, 0, 0, 0, 0 ,1,0
1 , 343 , 0.02 , 0,  0.72753906 , 0.58789062, 0.13964844, 5, 0.00000000, 0, 270, 2, 0, 1, 5, 1, 0, 0, 0, 0, 0, 0, 0, 0 ,1,0
1 , 344 , 0.40 , 0,  2.49414062 , 2.30957031, 0.18457031, 5, 0.00000000, 0, 90, 1, 0, 0, 5, 1, 0, 0, 0, 0, 0, 1, 0, 0 ,1,0
1 , 345 , 0.40 , 1,  0.91796875 , 0.76367188, 0.15429688, 5, 0.00000000, 0, 270, 2, 0, 1, 5, 1, 0, 0, 0, 0, 0, 0, 0, 0 ,1,0
1 , 346 , 0.11 , 1,  1.08984375 , 0.94921875, 0.14062500, 5, 0.00000000, 0, 270, 2, 0, 1, 5, 1, 0, 0, 0, 0, 0, 0, 0, 0 ,1,0
1 , 347 , 0.40 , 1,  1.20996094 , 1.06250000, 0.14746094, 5, 0.00000000, 0, 270, 1, 0, 1, 5, 1, 0, 0, 0, 0, 0, 0, 0, 0 ,1,0
1 , 348 , 0.02 , 1,  0.69726562 , 0.54492188, 0.15234375, 5, 0.00000000, 0, 90, 2, 0, 0, 5, 1, 0, 0, 0, 0, 0, 1, 0, 0 ,1,0
1 , 349 , 0.11 , 1,  1.08593750 , 0.99414062, 0.09179688, 5, 0.45019531, 2, 90, 1, 0, 0, 5, 1, 0, 3, 3, 0, 0, 0, 2, 2 ,1,0
1 , 350 , 0.11 , 1,  0.78222656 , 0.62695312, 0.15527344, 5, 3.52929688, 2, 90, 2, 0, 1, 5, 1, 0, 0, 0, 0, 1, 0, 0, 0 ,1,0
1 , 351 , 0.02 , 0,  0.50781250 , 0.38085938, 0.12695312, 5, 0.00000000, 0, 90, 2, 0, 0, 5, 1, 0, 0, 0, 0, 0, 1, 0, 0 ,1,0
1 , 352 , 0.40 , 1,  0.64062500 , 0.49902344, 0.14160156, 5, 0.00000000, 0, 90, 1, 0, 1, 5, 1, 0, 0, 0, 0, 0, 0, 0, 0 ,1,0
1 , 353 , 0.40 , 1,  0.92480469 , 0.68652344, 0.23828125, 5, 6.29394531, 1, 90, 2, 0, 0, 5, 1, 0, 0, 0, 2, 0, 1, 0, 0 ,1,0
1 , 354 , 0.02 , 1,  0.80566406 , 0.70800781, 0.09765625, 5, 0.00000000, 0, 270, 2, 0, 0, 5, 1, 0, 0, 0, 0, 0, 1, 0, 0 ,1,0
1 , 355 , 0.40 , 1,  0.86816406 , 0.76074219, 0.10742188, 5, 0.00000000, 0, 270, 1, 0, 0, 5, 1, 0, 0, 0, 0, 0, 1, 0, 0 ,1,0
1 , 356 , 0.02 , 0,  0.80078125 , 0.62988281, 0.17089844, 5, 0.00000000, 0, 270, 2, 0, 1, 5, 1, 0, 0, 0, 0, 0, 0, 0, 0 ,1,0
1 , 357 , 0.02 , 0,  1.69531250 , 1.56250000, 0.13281250, 5, 0.00000000, 0, 90, 1, 0, 0, 5, 1, 0, 0, 0, 0, 0, 3, 0, 0 ,1,0
1 , 358 , 0.02 , 1,  0.96093750 , 0.80078125, 0.16015625, 5, 0.00000000, 0, 270, 2, 0, 0, 5, 1, 0, 0, 0, 0, 0, 0, 2, 2 ,1,0
1 , 359 , 0.40 , 1,  0.70410156 , 0.54296875, 0.16113281, 5, 0.00000000, 0, 270, 1, 0, 1, 5, 1, 0, 0, 0, 0, 0, 0, 0, 0 ,1,0
1 , 360 , 0.02 , 1,  1.01855469 , 0.90234375, 0.11621094, 5, 0.00000000, 0, 270, 1, 0, 0, 5, 1, 0, 0, 0, 0, 0, 0, 2, 2 ,1,0
1 , 361 , 0.11 , 0,  0.79687500 , 0.51855469, 0.27832031, 5, 2.77832031, 1, 270, 2, 0, 1, 5, 1, 0, 0, 0, 1, 0, 0, 0, 0 ,1,0
1 , 362 , 0.40 , 1,  0.76953125 , 0.58789062, 0.18164062, 5, 0.00000000, 0, 90, 1, 0, 1, 5, 1, 0, 0, 0, 0, 0, 0, 0, 0 ,1,0
1 , 363 , 0.02 , 0,  0.70019531 , 0.55273438, 0.14746094, 5, 0.00000000, 0, 270, 1, 0, 0, 5, 1, 0, 0, 0, 0, 0, 2, 0, 0 ,1,0
1 , 364 , 0.11 , 1,  0.53710938 , 0.37304688, 0.16406250, 5, 5.98339844, 2, 90, 1, 0, 0, 5, 1, 0, 0, 0, 5, 1, 1, 0, 0 ,1,0
1 , 365 , 0.40 , 1,  1.01171875 , 0.85742188, 0.15429688, 5, 5.05664062, 2, 270, 2, 0, 0, 5, 1, 0, 0, 0, 0, 9, 0, 5, 5 ,1,0
1 , 366 , 0.40 , 1,  1.19433594 , 1.05371094, 0.14062500, 5, 0.00000000, 0, 270, 1, 0, 0, 5, 1, 0, 0, 0, 0, 0, 0, 2, 2 ,1,0
1 , 367 , 0.40 , 1,  0.75878906 , 0.53808594, 0.22070312, 5, 0.00000000, 0, 90, 2, 0, 1, 5, 1, 0, 0, 0, 0, 0, 0, 0, 0 ,1,0
1 , 368 , 0.02 , 1,  0.67968750 , 0.47363281, 0.20605469, 5, 6.58886719, 2, 270, 1, 0, 0, 5, 1, 0, 0, 0, 0, 1, 1, 0, 0 ,1,0
1 , 369 , 0.02 , 1,  2.80761719 , 2.64355469, 0.16406250, 5, 0.00000000, 0, 270, 1, 0, 0, 5, 1, 0, 0, 0, 0, 0, 6, 8, 8 ,1,0
1 , 370 , 0.40 , 1,  1.14941406 , 1.01269531, 0.13671875, 5, 0.02050781, 2, 270, 1, 0, 0, 5, 1, 0, 4, 4, 0, 1, 0, 1, 1 ,1,0
1 , 371 , 0.11 , 1,  1.27734375 , 1.13378906, 0.14355469, 5, 0.00000000, 0, 90, 1, 0, 0, 5, 1, 0, 0, 0, 0, 0, 2, 0, 0 ,1,0
1 , 372 , 0.11 , 1,  0.90527344 , 0.68261719, 0.22265625, 5, 0.00000000, 0, 90, 2, 0, 1, 5, 1, 0, 0, 0, 0, 0, 0, 0, 0 ,1,0
1 , 373 , 0.02 , 1,  0.80566406 , 0.63769531, 0.16796875, 5, 0.00000000, 0, 90, 2, 0, 1, 5, 1, 0, 0, 0, 0, 0, 0, 0, 0 ,1,0
1 , 374 , 0.40 , 1,  0.76757812 , 0.60253906, 0.16503906, 5, 0.00000000, 0, 90, 1, 0, 1, 5, 1, 0, 0, 0, 0, 0, 0, 0, 0 ,1,0
1 , 375 , 0.11 , 1,  0.88574219 , 0.74902344, 0.13671875, 5, 0.00000000, 0, 270, 2, 0, 1, 5, 1, 0, 0, 0, 0, 0, 0, 0, 0 ,1,0
1 , 376 , 0.02 , 0,  0.73535156 , 0.60058594, 0.13476562, 5, 0.00000000, 0, 90, 2, 0, 1, 5, 1, 0, 0, 0, 0, 0, 0, 0, 0 ,1,0
1 , 377 , 0.40 , 1,  1.06347656 , 0.94433594, 0.11914062, 5, 0.00000000, 0, 270, 1, 0, 0, 5, 1, 0, 0, 0, 0, 0, 1, 0, 0 ,1,0
1 , 378 , 0.02 , 0,  0.70898438 , 0.55175781, 0.15722656, 5, 0.00000000, 0, 270, 2, 0, 1, 5, 1, 0, 0, 0, 0, 0, 0, 0, 0 ,1,0
1 , 379 , 0.11 , 1,  0.83593750 , 0.61816406, 0.21777344, 5, 2.89062500, 1, 90, 1, 0, 1, 5, 1, 0, 0, 0, 3, 0, 0, 0, 0 ,1,0
1 , 380 , 0.11 , 1,  0.76367188 , 0.62011719, 0.14355469, 5, 4.28906250, 1, 90, 2, 0, 1, 5, 1, 0, 0, 0, 1, 0, 0, 0, 0 ,1,0
1 , 381 , 0.02 , 0,  0.83984375 , 0.72167969, 0.11816406, 5, 0.00000000, 0, 90, 1, 0, 0, 5, 1, 0, 0, 0, 0, 0, 1, 0, 0 ,1,0
1 , 382 , 0.02 , 1,  1.21679688 , 1.08984375, 0.12695312, 5, 4.05859375, 1, 90, 2, 0, 0, 5, 1, 0, 0, 0, 1, 0, 1, 0, 0 ,1,0
1 , 383 , 0.40 , 1,  0.61132812 , 0.45605469, 0.15527344, 5, 0.00000000, 0, 90, 1, 0, 1, 5, 1, 0, 0, 0, 0, 0, 0, 0, 0 ,1,0
1 , 384 , 0.40 , 1,  0.47851562 , 0.35253906, 0.12597656, 5, 0.00000000, 0, 90, 1, 0, 0, 5, 1, 0, 0, 0, 0, 0, 1, 0, 0 ,1,0
1 , 385 , 0.40 , 1,  0.97656250 , 0.74414062, 0.23242188, 5, 0.00000000, 0, 270, 1, 0, 1, 5, 1, 0, 0, 0, 0, 0, 0, 0, 0 ,1,0
1 , 386 , 0.40 , 1,  0.84960938 , 0.75585938, 0.09375000, 5, 0.00000000, 0, 90, 1, 0, 0, 5, 1, 0, 0, 0, 0, 0, 1, 0, 0 ,1,0
1 , 387 , 0.40 , 1,  0.66601562 , 0.55761719, 0.10839844, 5, 0.00000000, 0, 90, 2, 0, 1, 5, 1, 0, 0, 0, 0, 0, 0, 0, 0 ,1,0
1 , 388 , 0.02 , 0,  0.78222656 , 0.70800781, 0.07421875, 5, 0.00000000, 0, 270, 1, 0, 0, 5, 1, 0, 0, 0, 0, 0, 1, 0, 0 ,1,0
1 , 389 , 0.02 , 1,  0.89355469 , 0.79199219, 0.10156250, 5, 0.00000000, 0, 90, 1, 0, 0, 5, 1, 0, 0, 0, 0, 0, 1, 0, 0 ,1,0
1 , 390 , 0.11 , 0,  0.87109375 , 0.71972656, 0.15136719, 5, 0.00000000, 0, 270, 2, 0, 0, 5, 1, 0, 0, 0, 0, 0, 1, 1, 1 ,1,0
1 , 391 , 0.02 , 1,  0.71386719 , 0.56640625, 0.14746094, 5, 0.00000000, 0, 90, 2, 0, 1, 5, 1, 0, 0, 0, 0, 0, 0, 0, 0 ,1,0
1 , 392 , 0.02 , 0,  1.17675781 , 1.12988281, 0.04687500, 5, 0.00000000, 0, 270, 1, 0, 0, 5, 1, 0, 0, 0, 0, 0, 2, 0, 0 ,1,0
1 , 393 , 0.40 , 1,  0.65917969 , 0.54296875, 0.11621094, 5, 4.85742188, 1, 90, 2, 0, 1, 5, 1, 0, 0, 0, 1, 0, 0, 0, 0 ,1,0
1 , 394 , 0.02 , 0,  1.83593750 , 1.64648438, 0.18945312, 5, 0.00000000, 0, 270, 1, 0, 0, 5, 1, 0, 0, 0, 0, 0, 1, 3, 3 ,1,0
1 , 395 , 0.40 , 1,  0.66699219 , 0.51074219, 0.15625000, 5, 0.00000000, 0, 90, 1, 0, 1, 5, 1, 0, 0, 0, 0, 0, 0, 0, 0 ,1,0
1 , 396 , 0.40 , 0,  0.66992188 , 0.50195312, 0.16796875, 5, 0.00000000, 0, 270, 2, 0, 1, 5, 1, 0, 0, 0, 0, 0, 0, 0, 0 ,1,0
1 , 397 , 0.11 , 1,  0.69433594 , 0.51171875, 0.18261719, 5, 0.00000000, 0, 90, 1, 0, 1, 5, 1, 0, 0, 0, 0, 0, 0, 0, 0 ,1,0
1 , 398 , 0.40 , 1,  0.45605469 , 0.33203125, 0.12402344, 5, 0.00000000, 0, 270, 2, 0, 1, 5, 1, 0, 0, 0, 0, 0, 0, 0, 0 ,1,0
1 , 399 , 0.11 , 1,  0.77441406 , 0.63964844, 0.13476562, 5, 0.00000000, 0, 270, 2, 0, 0, 5, 1, 0, 0, 0, 0, 0, 1, 0, 0 ,1,0
1 , 400 , 0.02 , 0,  0.49414062 , 0.34863281, 0.14550781, 5, 0.00000000, 0, 270, 2, 0, 1, 5, 1, 0, 0, 0, 0, 0, 0, 0, 0 ,1,0
1 , 401 , 0.40 , 1,  1.21386719 , 1.10449219, 0.10937500, 5, 0.00000000, 0, 270, 2, 0, 0, 5, 1, 0, 0, 0, 0, 0, 0, 2, 2 ,1,0
1 , 402 , 0.40 , 1,  1.14062500 , 1.00781250, 0.13281250, 5, 0.00000000, 0, 90, 1, 0, 1, 5, 1, 0, 0, 0, 0, 0, 0, 0, 0 ,1,0
1 , 403 , 0.11 , 0,  0.80664062 , 0.66503906, 0.14160156, 5, 0.00000000, 0, 270, 2, 0, 0, 5, 1, 0, 0, 0, 0, 0, 1, 0, 0 ,1,0
1 , 404 , 0.02 , 0,  0.93750000 , 0.76464844, 0.17285156, 5, 0.00000000, 0, 270, 2, 0, 1, 5, 1, 0, 0, 0, 0, 0, 0, 0, 0 ,1,0
1 , 405 , 0.40 , 0,  1.37109375 , 1.17578125, 0.19531250, 5, 0.00000000, 0, 270, 2, 0, 0, 5, 1, 0, 0, 0, 0, 0, 3, 0, 0 ,1,0
1 , 406 , 0.40 , 1,  0.95898438 , 0.85742188, 0.10156250, 5, 0.00000000, 0, 270, 1, 0, 0, 5, 1, 0, 0, 0, 0, 0, 1, 1, 1 ,1,0
1 , 407 , 0.40 , 1,  1.23730469 , 1.08496094, 0.15234375, 5, 0.00000000, 0, 270, 1, 0, 0, 5, 1, 0, 0, 0, 0, 0, 1, 0, 0 ,1,0
1 , 408 , 0.40 , 0,  1.05175781 , 0.96484375, 0.08691406, 5, 0.00000000, 0, 90, 1, 0, 0, 5, 1, 0, 0, 0, 0, 0, 1, 0, 0 ,1,0
1 , 409 , 0.02 , 0,  1.71582031 , 1.58789062, 0.12792969, 5, 0.00000000, 0, 270, 2, 0, 0, 5, 1, 0, 0, 0, 0, 0, 1, 0, 0 ,1,0
1 , 410 , 0.11 , 0,  2.01757812 , 1.89355469, 0.12402344, 5, 2.17089844, 2, 270, 2, 0, 0, 5, 1, 0, 0, 0, 0, 1, 2, 0, 0 ,1,0
1 , 411 , 0.02 , 1,  0.60156250 , 0.42480469, 0.17675781, 5, 0.00000000, 0, 90, 2, 0, 0, 5, 1, 0, 0, 0, 0, 0, 1, 0, 0 ,1,0
1 , 412 , 0.02 , 0,  0.92480469 , 0.79492188, 0.12988281, 5, 0.00000000, 0, 270, 1, 0, 0, 5, 1, 0, 0, 0, 0, 0, 1, 0, 0 ,1,0
1 , 413 , 0.11 , 1,  0.92675781 , 0.78613281, 0.14062500, 5, 0.00000000, 0, 270, 2, 0, 1, 5, 1, 0, 0, 0, 0, 0, 0, 0, 0 ,1,0
1 , 414 , 0.40 , 1,  0.75585938 , 0.64746094, 0.10839844, 5, 0.00000000, 0, 270, 2, 0, 1, 5, 1, 0, 0, 0, 0, 0, 0, 0, 0 ,1,0
1 , 415 , 0.02 , 1,  0.87402344 , 0.72656250, 0.14746094, 5, 0.38476562, 2, 90, 1, 0, 1, 5, 1, 0, 4, 4, 0, 2, 0, 0, 0 ,1,0
1 , 416 , 0.11 , 1,  0.84667969 , 0.71289062, 0.13378906, 5, 0.00000000, 0, 270, 2, 0, 1, 5, 1, 0, 0, 0, 0, 0, 0, 0, 0 ,1,0
1 , 417 , 0.02 , 0,  0.97949219 , 0.78808594, 0.19140625, 5, 0.00000000, 0, 90, 1, 0, 1, 5, 1, 0, 0, 0, 0, 0, 0, 0, 0 ,1,0
1 , 418 , 0.11 , 1,  0.96093750 , 0.70605469, 0.25488281, 5, 0.00000000, 0, 90, 2, 0, 0, 5, 1, 0, 0, 0, 0, 0, 1, 0, 0 ,1,0
1 , 419 , 0.11 , 0,  1.24414062 , 1.12792969, 0.11621094, 5, 0.00000000, 0, 90, 1, 0, 0, 5, 1, 0, 0, 0, 0, 0, 0, 2, 2 ,1,0
1 , 420 , 0.02 , 1,  1.34570312 , 1.22753906, 0.11816406, 5, 0.00000000, 0, 270, 2, 0, 0, 5, 1, 0, 0, 0, 0, 0, 2, 0, 0 ,1,0
1 , 421 , 0.02 , 0,  1.08398438 , 1.01953125, 0.06445312, 5, 0.00000000, 0, 90, 1, 0, 0, 5, 1, 0, 0, 0, 0, 0, 1, 0, 0 ,1,0
1 , 422 , 0.11 , 1,  1.38574219 , 1.22167969, 0.16406250, 5, 0.00000000, 0, 90, 1, 0, 0, 5, 1, 0, 0, 0, 0, 0, 0, 2, 2 ,1,0
1 , 423 , 0.40 , 1,  1.32128906 , 1.15039062, 0.17089844, 5, 3.63183594, 2, 90, 1, 0, 1, 5, 1, 0, 0, 0, 0, 1, 0, 0, 0 ,1,0
1 , 424 , 0.11 , 0,  1.28320312 , 1.13867188, 0.14453125, 5, 0.58007812, 1, 90, 1, 0, 1, 5, 1, 2, 0, 0, 0, 0, 0, 0, 0 ,1,0
1 , 425 , 0.02 , 1,  1.13769531 , 0.95214844, 0.18554688, 5, 0.00000000, 0, 90, 2, 0, 0, 5, 1, 0, 0, 0, 0, 0, 1, 0, 0 ,1,0
1 , 426 , 0.40 , 1,  0.45996094 , 0.34082031, 0.11914062, 5, 0.00000000, 0, 90, 1, 0, 1, 5, 1, 0, 0, 0, 0, 0, 0, 0, 0 ,1,0
1 , 427 , 0.02 , 0,  1.14648438 , 1.02636719, 0.12011719, 5, 0.00000000, 0, 270, 2, 0, 0, 5, 1, 0, 0, 0, 0, 0, 2, 0, 0 ,1,0
1 , 428 , 0.11 , 0,  0.61425781 , 0.47070312, 0.14355469, 5, 0.00000000, 0, 270, 1, 0, 0, 5, 1, 0, 0, 0, 0, 0, 3, 0, 0 ,1,0
1 , 429 , 0.40 , 1,  1.05859375 , 0.90722656, 0.15136719, 5, 0.00000000, 0, 270, 1, 0, 1, 5, 1, 0, 0, 0, 0, 0, 0, 0, 0 ,1,0
1 , 430 , 0.02 , 0,  1.41210938 , 1.26660156, 0.14550781, 5, 0.00000000, 0, 270, 2, 0, 0, 5, 1, 0, 0, 0, 0, 0, 2, 0, 0 ,1,0
1 , 431 , 0.40 , 1,  0.88085938 , 0.76953125, 0.11132812, 5, 0.00000000, 0, 90, 1, 0, 0, 5, 1, 0, 0, 0, 0, 0, 1, 0, 0 ,1,0
1 , 432 , 0.40 , 1,  0.80566406 , 0.65039062, 0.15527344, 5, 6.47753906, 1, 270, 2, 0, 0, 5, 1, 0, 0, 0, 1, 0, 1, 0, 0 ,1,0
1 , 433 , 0.02 , 1,  1.02050781 , 0.82324219, 0.19726562, 5, 0.00000000, 0, 270, 1, 0, 1, 5, 1, 0, 0, 0, 0, 0, 0, 0, 0 ,1,0
1 , 434 , 0.40 , 1,  0.75000000 , 0.58007812, 0.16992188, 5, 0.00000000, 0, 270, 2, 0, 0, 5, 1, 0, 0, 0, 0, 0, 1, 0, 0 ,1,0
1 , 435 , 0.02 , 0,  2.52929688 , 2.46679688, 0.06250000, 5, 0.00000000, 0, 90, 1, 0, 0, 5, 1, 0, 0, 0, 0, 0, 3, 2, 2 ,1,0
1 , 436 , 0.11 , 0,  0.85644531 , 0.65039062, 0.20605469, 5, 0.00000000, 0, 270, 2, 0, 1, 5, 1, 0, 0, 0, 0, 0, 0, 0, 0 ,1,0
1 , 437 , 0.40 , 1,  1.34179688 , 1.21093750, 0.13085938, 5, 2.39062500, 2, 270, 1, 0, 1, 5, 1, 0, 0, 0, 0, 1, 0, 0, 0 ,1,0
1 , 438 , 0.11 , 1,  1.41894531 , 1.26757812, 0.15136719, 5, 0.00000000, 0, 270, 1, 0, 1, 5, 1, 0, 0, 0, 0, 0, 0, 0, 0 ,1,0
1 , 439 , 0.11 , 1,  1.20605469 , 1.11425781, 0.09179688, 5, 0.00000000, 0, 90, 1, 0, 0, 5, 1, 0, 0, 0, 0, 0, 1, 1, 1 ,1,0
1 , 440 , 0.11 , 1,  0.80078125 , 0.66015625, 0.14062500, 5, 0.00000000, 0, 270, 2, 0, 0, 5, 1, 0, 0, 0, 0, 0, 4, 0, 0 ,1,0
1 , 441 , 0.40 , 1,  0.67187500 , 0.51660156, 0.15527344, 5, 0.00000000, 0, 270, 2, 0, 1, 5, 1, 0, 0, 0, 0, 0, 0, 0, 0 ,1,0
1 , 442 , 0.11 , 1,  0.46679688 , 0.32714844, 0.13964844, 5, 0.08300781, 1, 90, 2, 0, 1, 5, 1, 1, 0, 0, 0, 3, 0, 0, 0 ,1,0
1 , 443 , 0.02 , 0,  0.46777344 , 0.24023438, 0.22753906, 5, 0.00000000, 0, 270, 1, 0, 1, 5, 1, 0, 0, 0, 0, 0, 0, 0, 0 ,1,0
1 , 444 , 0.11 , 1,  1.33593750 , 1.17285156, 0.16308594, 5, 3.70312500, 1, 90, 2, 0, 1, 5, 1, 0, 0, 0, 1, 0, 0, 0, 0 ,1,0
1 , 445 , 0.11 , 0,  0.77636719 , 0.61328125, 0.16308594, 5, 0.00000000, 0, 270, 1, 0, 1, 5, 1, 0, 0, 0, 0, 0, 0, 0, 0 ,1,0
1 , 446 , 0.11 , 1,  0.92871094 , 0.80664062, 0.12207031, 5, 6.92382812, 2, 90, 1, 0, 0, 5, 1, 0, 0, 0, 0, 1, 0, 1, 1 ,1,0
1 , 447 , 0.40 , 1,  0.72656250 , 0.58984375, 0.13671875, 5, 0.00000000, 0, 90, 1, 0, 1, 5, 1, 0, 0, 0, 0, 0, 0, 0, 0 ,1,0
1 , 448 , 0.40 , 1,  0.70507812 , 0.52734375, 0.17773438, 5, 0.00000000, 0, 90, 1, 0, 1, 5, 1, 0, 0, 0, 0, 0, 0, 0, 0 ,1,0
1 , 449 , 0.40 , 1,  0.78515625 , 0.62890625, 0.15625000, 5, 0.00000000, 0, 90, 2, 0, 0, 5, 1, 0, 0, 0, 0, 0, 2, 0, 0 ,1,0
1 , 450 , 0.40 , 1,  0.81445312 , 0.66210938, 0.15234375, 5, 0.00000000, 0, 90, 2, 0, 1, 5, 1, 0, 0, 0, 0, 0, 0, 0, 0 ,1,0
1 , 451 , 0.40 , 1,  1.17871094 , 1.06933594, 0.10937500, 5, 0.00000000, 0, 270, 1, 0, 0, 5, 1, 0, 0, 0, 0, 0, 1, 0, 0 ,1,0
1 , 452 , 0.02 , 1,  1.11621094 , 0.97851562, 0.13769531, 5, 0.00000000, 0, 90, 1, 0, 0, 5, 1, 0, 0, 0, 0, 0, 0, 2, 2 ,1,0
1 , 453 , 0.11 , 0,  0.86230469 , 0.69140625, 0.17089844, 5, 0.00000000, 0, 90, 2, 0, 1, 5, 1, 0, 0, 0, 0, 0, 0, 0, 0 ,1,0
1 , 454 , 0.02 , 1,  1.17382812 , 0.99511719, 0.17871094, 5, 0.00000000, 0, 90, 1, 0, 0, 5, 1, 0, 0, 0, 0, 0, 0, 1, 1 ,1,0
1 , 455 , 0.11 , 1,  0.73632812 , 0.58007812, 0.15625000, 5, 0.00000000, 0, 90, 1, 0, 1, 5, 1, 0, 0, 0, 0, 0, 0, 0, 0 ,1,0
1 , 456 , 0.11 , 1,  0.90332031 , 0.73925781, 0.16406250, 5, 0.00000000, 0, 270, 2, 0, 0, 5, 1, 0, 0, 0, 0, 0, 1, 0, 0 ,1,0
1 , 457 , 0.11 , 1,  1.27246094 , 1.11816406, 0.15429688, 5, 0.00000000, 0, 270, 2, 0, 0, 5, 1, 0, 0, 0, 0, 0, 1, 0, 0 ,1,0
1 , 458 , 0.40 , 1,  0.63281250 , 0.47265625, 0.16015625, 5, 5.92187500, 2, 90, 2, 0, 1, 5, 1, 0, 0, 0, 0, 5, 0, 0, 0 ,1,0
1 , 459 , 0.02 , 1,  1.60058594 , 1.44238281, 0.15820312, 5, 0.30371094, 2, 90, 1, 0, 0, 5, 1, 0, 7, 7, 0, 0, 1, 0, 0 ,1,0
1 , 460 , 0.11 , 0,  0.82519531 , 0.65136719, 0.17382812, 5, 0.78125000, 1, 270, 2, 0, 1, 5, 1, 1, 0, 0, 0, 0, 0, 0, 0 ,1,0
1 , 461 , 0.40 , 1,  0.82910156 , 0.70019531, 0.12890625, 5, 0.00000000, 0, 270, 2, 0, 0, 5, 1, 0, 0, 0, 0, 0, 0, 2, 2 ,1,0
1 , 462 , 0.02 , 0,  0.71875000 , 0.61035156, 0.10839844, 5, 0.00000000, 0, 90, 2, 0, 0, 5, 1, 0, 0, 0, 0, 0, 1, 0, 0 ,1,0
1 , 463 , 0.11 , 1,  1.16601562 , 1.02929688, 0.13671875, 5, 0.00000000, 0, 90, 1, 0, 0, 5, 1, 0, 0, 0, 0, 0, 2, 0, 0 ,1,0
1 , 464 , 0.40 , 1,  0.78808594 , 0.57617188, 0.21191406, 5, 0.00000000, 0, 90, 2, 0, 1, 5, 1, 0, 0, 0, 0, 0, 0, 0, 0 ,1,0
1 , 465 , 0.02 , 0,  0.96289062 , 0.73925781, 0.22363281, 5, 0.00000000, 0, 270, 2, 0, 1, 5, 1, 0, 0, 0, 0, 0, 0, 0, 0 ,1,0
1 , 466 , 0.11 , 0,  1.29199219 , 1.15332031, 0.13867188, 5, 0.00000000, 0, 90, 1, 0, 0, 5, 1, 0, 0, 0, 0, 0, 2, 0, 0 ,1,0
1 , 467 , 0.02 , 0,  0.44140625 , 0.29785156, 0.14355469, 5, 3.18457031, 1, 90, 2, 0, 0, 5, 1, 0, 0, 0, 1, 0, 1, 0, 0 ,1,0
1 , 468 , 0.02 , 1,  0.88867188 , 0.59765625, 0.29101562, 5, 6.50683594, 1, 90, 2, 0, 1, 5, 1, 0, 0, 0, 1, 0, 0, 0, 0 ,1,0
1 , 469 , 0.11 , 0,  0.81933594 , 0.66406250, 0.15527344, 5, 2.27832031, 2, 270, 2, 0, 1, 5, 1, 0, 0, 0, 0, 1, 0, 0, 0 ,1,0
1 , 470 , 0.40 , 1,  1.74414062 , 1.54394531, 0.20019531, 5, 0.00000000, 0, 90, 2, 0, 1, 5, 1, 0, 0, 0, 0, 0, 0, 0, 0 ,1,0
1 , 471 , 0.40 , 0,  0.95605469 , 0.77929688, 0.17675781, 5, 0.14941406, 2, 270, 1, 0, 1, 5, 1, 0, 1, 1, 0, 2, 0, 0, 0 ,1,0
1 , 472 , 0.02 , 0,  1.51269531 , 1.39941406, 0.11328125, 5, 0.00000000, 0, 270, 1, 0, 0, 5, 1, 0, 0, 0, 0, 0, 1, 1, 1 ,1,0
1 , 473 , 0.11 , 1,  0.53320312 , 0.36035156, 0.17285156, 5, 0.00000000, 0, 270, 1, 0, 1, 5, 1, 0, 0, 0, 0, 0, 0, 0, 0 ,1,0
1 , 474 , 0.02 , 0,  0.97656250 , 0.84960938, 0.12695312, 5, 5.84570312, 2, 270, 1, 0, 0, 5, 1, 0, 0, 0, 0, 1, 0, 2, 2 ,1,0
1 , 475 , 0.02 , 0,  0.86132812 , 0.72558594, 0.13574219, 5, 0.00000000, 0, 90, 2, 0, 0, 5, 1, 0, 0, 0, 0, 0, 1, 0, 0 ,1,0
1 , 476 , 0.11 , 1,  0.95507812 , 0.78515625, 0.16992188, 5, 0.12890625, 1, 90, 2, 0, 0, 5, 1, 2, 0, 0, 0, 2, 0, 2, 2 ,1,0
1 , 477 , 0.11 , 1,  1.15625000 , 0.97265625, 0.18359375, 5, 0.00000000, 0, 90, 1, 0, 0, 5, 1, 0, 0, 0, 0, 0, 1, 0, 0 ,1,0
1 , 478 , 0.11 , 1,  0.82226562 , 0.68945312, 0.13281250, 5, 0.00000000, 0, 90, 2, 0, 0, 5, 1, 0, 0, 0, 0, 0, 4, 0, 0 ,1,0
1 , 479 , 0.02 , 1,  0.85546875 , 0.68945312, 0.16601562, 5, 0.00000000, 0, 90, 2, 0, 1, 5, 1, 0, 0, 0, 0, 0, 0, 0, 0 ,1,0
1 , 480 , 0.02 , 1,  1.00292969 , 0.78613281, 0.21679688, 5, 6.86914062, 2, 270, 1, 0, 1, 5, 1, 0, 0, 0, 0, 1, 0, 0, 0 ,1,0
1 , 481 , 0.40 , 1,  1.60449219 , 1.52929688, 0.07519531, 5, 0.01367188, 1, 90, 1, 0, 0, 0, 1, 2, 0, 0, -1, -1, -1, -1, -1 ,1,0
1 , 482 , 0.40 , 1,  1.57421875 , 1.46093750, 0.11328125, 5, 1.40136719, 1, 270, 2, 0, 0, 0, 1, 1, 0, 0, -1, -1, -1, -1, -1 ,1,0
1 , 483 , 0.11 , 1,  1.13769531 , 0.97656250, 0.16113281, 5, 0.60937500, 1, 90, 1, 0, 0, 0, 1, 1, 0, 0, -1, -1, -1, -1, -1 ,1,0
1 , 484 , 0.02 , 1,  0.94238281 , 0.76757812, 0.17480469, 5, 0.67285156, 1, 270, 2, 0, 0, 0, 1, 1, 0, 0, -1, -1, -1, -1, -1 ,1,0
1 , 485 , 0.02 , 1,  2.24511719 , 2.10253906, 0.14257812, 5, 0.00000000, 0, 90, 1, 0, 1, 0, 1, 0, 0, 0, -1, -1, -1, -1, -1 ,1,0
1 , 486 , 0.11 , 0,  0.82324219 , 0.65527344, 0.16796875, 5, 0.00000000, 0, 270, 1, 0, 1, 0, 1, 0, 0, 0, -1, -1, -1, -1, -1 ,1,0
1 , 487 , 0.40 , 1,  1.09863281 , 0.94628906, 0.15234375, 5, 0.00000000, 0, 270, 2, 0, 1, 0, 1, 0, 0, 0, -1, -1, -1, -1, -1 ,1,0
1 , 488 , 0.40 , 1,  1.10449219 , 0.98046875, 0.12402344, 5, 0.90917969, 1, 90, 1, 0, 0, 0, 1, 1, 0, 0, -1, -1, -1, -1, -1 ,1,0
1 , 489 , 0.11 , 0,  1.19335938 , 1.11035156, 0.08300781, 5, 0.99316406, 1, 270, 1, 0, 0, 0, 1, 1, 0, 0, -1, -1, -1, -1, -1 ,1,0
1 , 490 , 0.02 , 0,  1.28613281 , 1.14453125, 0.14160156, 5, 0.00000000, 0, 90, 2, 0, 1, 0, 1, 0, 0, 0, -1, -1, -1, -1, -1 ,1,0
1 , 491 , 0.40 , 1,  0.77148438 , 0.65527344, 0.11621094, 5, 0.56152344, 1, 90, 1, 0, 0, 0, 1, 1, 0, 0, -1, -1, -1, -1, -1 ,1,0
1 , 492 , 0.40 , 1,  0.66894531 , 0.50878906, 0.16015625, 5, 0.00000000, 0, 90, 1, 0, 1, 0, 1, 0, 0, 0, -1, -1, -1, -1, -1 ,1,0
1 , 493 , 0.11 , 0,  0.69921875 , 0.54394531, 0.15527344, 5, 0.00000000, 0, 270, 1, 0, 1, 0, 1, 0, 0, 0, -1, -1, -1, -1, -1 ,1,0
1 , 494 , 0.11 , 0,  0.96972656 , 0.82031250, 0.14941406, 5, 0.00000000, 0, 270, 1, 0, 1, 0, 1, 0, 0, 0, -1, -1, -1, -1, -1 ,1,0
1 , 495 , 0.02 , 1,  1.33691406 , 1.23046875, 0.10644531, 5, 1.11523438, 1, 90, 1, 0, 0, 0, 1, 1, 0, 0, -1, -1, -1, -1, -1 ,1,0
1 , 496 , 0.40 , 0,  1.12207031 , 0.96777344, 0.15429688, 5, 0.00000000, 0, 270, 1, 0, 1, 0, 1, 0, 0, 0, -1, -1, -1, -1, -1 ,1,0
1 , 497 , 0.40 , 1,  0.77539062 , 0.64453125, 0.13085938, 5, 0.00000000, 0, 90, 1, 0, 1, 0, 1, 0, 0, 0, -1, -1, -1, -1, -1 ,1,0
1 , 498 , 0.02 , 1,  0.93945312 , 0.81152344, 0.12792969, 5, 0.00000000, 0, 90, 1, 0, 1, 0, 1, 0, 0, 0, -1, -1, -1, -1, -1 ,1,0
1 , 499 , 0.11 , 0,  1.55664062 , 1.44726562, 0.10937500, 5, 1.06445312, 1, 270, 1, 0, 0, 0, 1, 2, 0, 0, -1, -1, -1, -1, -1 ,1,0
1 , 500 , 0.02 , 0,  0.79687500 , 0.65820312, 0.13867188, 5, 0.00000000, 0, 270, 1, 0, 1, 0, 1, 0, 0, 0, -1, -1, -1, -1, -1 ,1,0
1 , 501 , 0.11 , 1,  1.23730469 , 1.09472656, 0.14257812, 5, 0.00000000, 0, 90, 1, 0, 1, 0, 1, 0, 0, 0, -1, -1, -1, -1, -1 ,1,0
1 , 502 , 0.40 , 1,  0.71679688 , 0.57812500, 0.13867188, 5, 0.00000000, 0, 90, 1, 0, 1, 0, 1, 0, 0, 0, -1, -1, -1, -1, -1 ,1,0
1 , 503 , 0.02 , 0,  1.87597656 , 1.72558594, 0.15039062, 5, 0.00000000, 0, 270, 1, 0, 1, 0, 1, 0, 0, 0, -1, -1, -1, -1, -1 ,1,0
1 , 504 , 0.11 , 0,  1.10156250 , 0.88281250, 0.21875000, 5, 0.71875000, 1, 270, 1, 0, 0, 0, 1, 1, 0, 0, -1, -1, -1, -1, -1 ,1,0
1 , 505 , 0.11 , 1,  0.78710938 , 0.60644531, 0.18066406, 5, 0.00000000, 0, 90, 1, 0, 1, 0, 1, 0, 0, 0, -1, -1, -1, -1, -1 ,1,0
1 , 506 , 0.40 , 0,  0.85644531 , 0.66601562, 0.19042969, 5, 0.00000000, 0, 270, 1, 0, 1, 0, 1, 0, 0, 0, -1, -1, -1, -1, -1 ,1,0
1 , 507 , 0.11 , 1,  0.95117188 , 0.81152344, 0.13964844, 5, 0.68066406, 1, 90, 1, 0, 0, 0, 1, 1, 0, 0, -1, -1, -1, -1, -1 ,1,0
1 , 508 , 0.02 , 1,  2.46191406 , 2.29589844, 0.16601562, 5, 1.51855469, 2, 270, 2, 0, 0, 0, 1, 0, 4, 5, -1, -1, -1, -1, -1 ,1,0
1 , 509 , 0.11 , 1,  1.05468750 , 0.83593750, 0.21875000, 5, 0.00000000, 0, 90, 1, 0, 1, 0, 1, 0, 0, 0, -1, -1, -1, -1, -1 ,1,0
1 , 510 , 0.02 , 0,  1.89062500 , 1.72558594, 0.16503906, 5, 1.10742188, 1, 270, 1, 0, 0, 0, 1, 2, 0, 0, -1, -1, -1, -1, -1 ,1,0
1 , 511 , 0.02 , 1,  0.78808594 , 0.63964844, 0.14843750, 5, 0.00000000, 0, 90, 1, 0, 1, 0, 1, 0, 0, 0, -1, -1, -1, -1, -1 ,1,0
1 , 512 , 0.11 , 0,  0.71386719 , 0.60937500, 0.10449219, 5, 0.53613281, 1, 270, 1, 0, 0, 0, 1, 1, 0, 0, -1, -1, -1, -1, -1 ,1,0
1 , 513 , 0.11 , 0,  1.08398438 , 0.95117188, 0.13281250, 5, 0.74316406, 1, 270, 1, 0, 0, 0, 1, 1, 0, 0, -1, -1, -1, -1, -1 ,1,0
1 , 514 , 0.02 , 0,  2.51855469 , 2.37890625, 0.13964844, 5, 1.84863281, 2, 270, 1, 0, 0, 0, 1, 0, 1, 2, -1, -1, -1, -1, -1 ,1,0
1 , 515 , 0.40 , 1,  1.16308594 , 1.04492188, 0.11816406, 5, 0.00000000, 0, 90, 1, 0, 1, 0, 1, 0, 0, 0, -1, -1, -1, -1, -1 ,1,0
1 , 516 , 0.02 , 1,  0.80957031 , 0.69628906, 0.11328125, 5, 0.00000000, 0, 90, 1, 0, 1, 0, 1, 0, 0, 0, -1, -1, -1, -1, -1 ,1,0
1 , 517 , 0.11 , 1,  1.82128906 , 1.70214844, 0.11914062, 5, 1.57617188, 1, 90, 1, 0, 0, 0, 1, 1, 0, 0, -1, -1, -1, -1, -1 ,1,0
1 , 518 , 0.11 , 0,  1.66699219 , 1.45898438, 0.20800781, 5, 0.96777344, 1, 270, 1, 0, 0, 0, 1, 3, 0, 0, -1, -1, -1, -1, -1 ,1,0
1 , 519 , 0.40 , 1,  1.01660156 , 0.86718750, 0.14941406, 5, 0.00000000, 0, 270, 2, 0, 1, 0, 1, 0, 0, 0, -1, -1, -1, -1, -1 ,1,0
1 , 520 , 0.02 , 0,  1.29003906 , 1.11621094, 0.17382812, 5, 0.00000000, 0, 90, 2, 0, 1, 0, 1, 0, 0, 0, -1, -1, -1, -1, -1 ,1,0
1 , 521 , 0.40 , 1,  1.20214844 , 1.06445312, 0.13769531, 5, 0.93359375, 1, 90, 1, 0, 0, 0, 1, 1, 0, 0, -1, -1, -1, -1, -1 ,1,0
1 , 522 , 0.11 , 1,  1.15527344 , 1.05957031, 0.09570312, 5, 0.00000000, 0, 90, 1, 0, 1, 0, 1, 0, 0, 0, -1, -1, -1, -1, -1 ,1,0
1 , 523 , 0.40 , 1,  1.42285156 , 1.29492188, 0.12792969, 5, 0.00000000, 0, 90, 1, 0, 1, 0, 1, 0, 0, 0, -1, -1, -1, -1, -1 ,1,0
1 , 524 , 0.40 , 1,  0.87011719 , 0.75781250, 0.11230469, 5, 0.55761719, 1, 90, 1, 0, 0, 0, 1, 1, 0, 0, -1, -1, -1, -1, -1 ,1,0
1 , 525 , 0.11 , 1,  1.81738281 , 1.63085938, 0.18652344, 5, 0.00000000, 0, 90, 1, 0, 1, 0, 1, 0, 0, 0, -1, -1, -1, -1, -1 ,1,0
1 , 526 , 0.40 , 0,  0.72558594 , 0.63183594, 0.09375000, 5, 0.00000000, 0, 270, 1, 0, 1, 0, 1, 0, 0, 0, -1, -1, -1, -1, -1 ,1,0
1 , 527 , 0.11 , 1,  2.78222656 , 2.60546875, 0.17675781, 5, 1.45214844, 1, 90, 1, 0, 0, 0, 1, 8, 0, 0, -1, -1, -1, -1, -1 ,1,0
1 , 528 , 0.02 , 1,  1.70898438 , 1.52148438, 0.18750000, 5, 0.00000000, 0, 90, 1, 0, 1, 0, 1, 0, 0, 0, -1, -1, -1, -1, -1 ,1,0
1 , 529 , 0.02 , 0,  1.46289062 , 1.32617188, 0.13671875, 5, 0.00000000, 0, 270, 1, 0, 1, 0, 1, 0, 0, 0, -1, -1, -1, -1, -1 ,1,0
1 , 530 , 0.02 , 1,  1.37792969 , 1.20800781, 0.16992188, 5, 0.07812500, 1, 90, 1, 0, 0, 0, 1, 5, 0, 0, -1, -1, -1, -1, -1 ,1,0
1 , 531 , 0.40 , 1,  1.22070312 , 1.05273438, 0.16796875, 5, 0.90527344, 1, 270, 2, 0, 0, 0, 1, 2, 0, 0, -1, -1, -1, -1, -1 ,1,0
1 , 532 , 0.02 , 1,  0.82128906 , 0.69335938, 0.12792969, 5, 0.57421875, 1, 90, 1, 0, 0, 0, 1, 1, 0, 0, -1, -1, -1, -1, -1 ,1,0
1 , 533 , 0.40 , 1,  0.93261719 , 0.82617188, 0.10644531, 5, 0.00000000, 0, 270, 2, 0, 1, 0, 1, 0, 0, 0, -1, -1, -1, -1, -1 ,1,0
1 , 534 , 0.02 , 1,  1.65527344 , 1.54589844, 0.10937500, 5, 1.47851562, 1, 90, 1, 0, 0, 0, 1, 1, 0, 0, -1, -1, -1, -1, -1 ,1,0
1 , 535 , 0.11 , 1,  1.46484375 , 1.32128906, 0.14355469, 5, 0.00000000, 0, 270, 2, 0, 1, 0, 1, 0, 0, 0, -1, -1, -1, -1, -1 ,1,0
1 , 536 , 0.40 , 1,  1.14355469 , 1.05957031, 0.08398438, 5, 0.00000000, 0, 90, 1, 0, 1, 0, 1, 0, 0, 0, -1, -1, -1, -1, -1 ,1,0
1 , 537 , 0.02 , 0,  2.81445312 , 2.74804688, 0.06640625, 5, 2.02343750, 1, 270, 1, 0, 0, 0, 1, 2, 0, 0, -1, -1, -1, -1, -1 ,1,0
1 , 538 , 0.02 , 0,  2.47851562 , 2.37304688, 0.10546875, 5, 1.72167969, 2, 270, 1, 0, 0, 0, 1, 0, 1, 2, -1, -1, -1, -1, -1 ,1,0
1 , 539 , 0.11 , 1,  1.88281250 , 1.70214844, 0.18066406, 5, 0.00000000, 0, 90, 1, 0, 1, 0, 1, 0, 0, 0, -1, -1, -1, -1, -1 ,1,0
1 , 540 , 0.40 , 1,  1.00878906 , 0.90917969, 0.09960938, 5, 0.00000000, 0, 90, 1, 0, 1, 0, 1, 0, 0, 0, -1, -1, -1, -1, -1 ,1,0
1 , 541 , 0.11 , 0,  2.49804688 , 2.37792969, 0.12011719, 5, 2.30175781, 1, 270, 1, 0, 0, 0, 1, 1, 0, 0, -1, -1, -1, -1, -1 ,1,0
1 , 542 , 0.11 , 1,  2.30468750 , 2.23632812, 0.06835938, 5, 1.81445312, 1, 90, 1, 0, 0, 0, 1, 3, 0, 0, -1, -1, -1, -1, -1 ,1,0
1 , 543 , 0.40 , 1,  1.80566406 , 1.64453125, 0.16113281, 5, 0.07324219, 1, 270, 2, 0, 0, 0, 1, 1, 0, 0, -1, -1, -1, -1, -1 ,1,0
1 , 544 , 0.40 , 1,  1.01660156 , 0.88964844, 0.12695312, 5, 0.00000000, 0, 90, 1, 0, 1, 0, 1, 0, 0, 0, -1, -1, -1, -1, -1 ,1,0
1 , 545 , 0.11 , 1,  1.79687500 , 1.67578125, 0.12109375, 5, 0.00000000, 0, 90, 1, 0, 1, 0, 1, 0, 0, 0, -1, -1, -1, -1, -1 ,1,0
1 , 546 , 0.40 , 1,  1.37207031 , 1.23730469, 0.13476562, 5, 0.00000000, 0, 270, 2, 0, 1, 0, 1, 0, 0, 0, -1, -1, -1, -1, -1 ,1,0
1 , 547 , 0.40 , 1,  1.16308594 , 1.06347656, 0.09960938, 5, 0.00000000, 0, 270, 2, 0, 1, 0, 1, 0, 0, 0, -1, -1, -1, -1, -1 ,1,0
1 , 548 , 0.40 , 1,  1.03808594 , 1.01269531, 0.02539062, 5, 0.88964844, 1, 270, 2, 0, 0, 0, 1, 1, 0, 0, -1, -1, -1, -1, -1 ,1,0
1 , 549 , 0.11 , 1,  1.92285156 , 1.77832031, 0.14453125, 5, 0.89746094, 1, 90, 1, 0, 0, 0, 1, 2, 0, 0, -1, -1, -1, -1, -1 ,1,0
1 , 550 , 0.11 , 1,  1.63281250 , 1.45410156, 0.17871094, 5, 0.00000000, 0, 270, 2, 0, 1, 0, 1, 0, 0, 0, -1, -1, -1, -1, -1 ,1,0
1 , 551 , 0.40 , 1,  1.02050781 , 0.84667969, 0.17382812, 5, 0.00000000, 0, 90, 1, 0, 1, 0, 1, 0, 0, 0, -1, -1, -1, -1, -1 ,1,0
1 , 552 , 0.40 , 1,  1.12109375 , 0.99121094, 0.12988281, 5, 0.00000000, 0, 270, 2, 0, 1, 0, 1, 0, 0, 0, -1, -1, -1, -1, -1 ,1,0
1 , 553 , 0.11 , 1,  1.71582031 , 1.62695312, 0.08886719, 5, 1.54199219, 1, 90, 1, 0, 0, 0, 1, 1, 0, 0, -1, -1, -1, -1, -1 ,1,0
1 , 554 , 0.02 , 1,  2.16015625 , 2.07031250, 0.08984375, 5, 1.08496094, 1, 90, 1, 0, 0, 0, 1, 2, 1, 0, -1, -1, -1, -1, -1 ,1,0
1 , 555 , 0.40 , 1,  1.09179688 , 0.96289062, 0.12890625, 5, 0.00000000, 0, 270, 2, 0, 1, 0, 1, 0, 0, 0, -1, -1, -1, -1, -1 ,1,0
1 , 556 , 0.02 , 1,  1.44726562 , 1.32617188, 0.12109375, 5, 0.00000000, 0, 90, 1, 0, 1, 0, 1, 0, 0, 0, -1, -1, -1, -1, -1 ,1,0
1 , 557 , 0.02 , 1,  1.91601562 , 1.72265625, 0.19335938, 5, 0.00000000, 0, 90, 1, 0, 1, 0, 1, 0, 0, 0, -1, -1, -1, -1, -1 ,1,0
1 , 558 , 0.40 , 1,  1.31054688 , 1.12890625, 0.18164062, 5, 0.00000000, 0, 90, 1, 0, 1, 0, 1, 0, 0, 0, -1, -1, -1, -1, -1 ,1,0
1 , 559 , 0.11 , 1,  1.95703125 , 1.86230469, 0.09472656, 5, 1.79101562, 1, 90, 1, 0, 0, 0, 1, 1, 0, 0, -1, -1, -1, -1, -1 ,1,0
1 , 560 , 0.40 , 1,  0.88183594 , 0.77343750, 0.10839844, 5, 0.71289062, 1, 90, 1, 0, 0, 0, 1, 1, 0, 0, -1, -1, -1, -1, -1 ,1,0
1 , 561 , 0.11 , 0,  2.35644531 , 2.21679688, 0.13964844, 5, 0.00000000, 0, 270, 1, 0, 1, 0, 1, 0, 0, 0, -1, -1, -1, -1, -1 ,1,0
1 , 562 , 0.02 , 0,  1.53710938 , 1.39843750, 0.13867188, 5, 0.00000000, 0, 270, 1, 0, 1, 0, 1, 0, 0, 0, -1, -1, -1, -1, -1 ,1,0
1 , 563 , 0.11 , 1,  1.02343750 , 0.91601562, 0.10742188, 5, 0.84570312, 1, 90, 1, 0, 0, 0, 1, 1, 0, 0, -1, -1, -1, -1, -1 ,1,0
1 , 564 , 0.02 , 1,  1.00585938 , 0.84179688, 0.16406250, 5, 0.00000000, 0, 90, 1, 0, 1, 0, 1, 0, 0, 0, -1, -1, -1, -1, -1 ,1,0
1 , 565 , 0.11 , 0,  1.83886719 , 1.69531250, 0.14355469, 5, 1.31640625, 1, 270, 1, 0, 0, 0, 1, 2, 0, 0, -1, -1, -1, -1, -1 ,1,0
1 , 566 , 0.11 , 1,  1.83203125 , 1.67187500, 0.16015625, 5, 0.00000000, 0, 270, 2, 0, 1, 0, 1, 0, 0, 0, -1, -1, -1, -1, -1 ,1,0
1 , 567 , 0.02 , 0,  1.25878906 , 1.07910156, 0.17968750, 5, 0.23535156, 1, 270, 1, 0, 0, 0, 1, 1, 0, 0, -1, -1, -1, -1, -1 ,1,0
1 , 568 , 0.02 , 0,  1.31835938 , 1.16796875, 0.15039062, 5, 0.00000000, 0, 90, 2, 0, 1, 0, 1, 0, 0, 0, -1, -1, -1, -1, -1 ,1,0
1 , 569 , 0.40 , 1,  0.97265625 , 0.87207031, 0.10058594, 5, 0.04785156, 2, 270, 2, 0, 0, 0, 1, 0, 1, 2, -1, -1, -1, -1, -1 ,1,0
1 , 570 , 0.02 , 1,  1.33398438 , 1.24218750, 0.09179688, 5, 0.27343750, 1, 270, 2, 0, 0, 0, 1, 5, 0, 0, -1, -1, -1, -1, -1 ,1,0
1 , 571 , 0.02 , 1,  1.50878906 , 1.40722656, 0.10156250, 5, 0.00000000, 0, 270, 2, 0, 1, 0, 1, 0, 0, 0, -1, -1, -1, -1, -1 ,1,0
1 , 572 , 0.02 , 1,  1.26367188 , 1.08203125, 0.18164062, 5, 0.89843750, 1, 270, 2, 0, 0, 0, 1, 1, 0, 0, -1, -1, -1, -1, -1 ,1,0
1 , 573 , 0.11 , 1,  2.27441406 , 2.10058594, 0.17382812, 5, 1.43847656, 1, 270, 2, 0, 0, 0, 1, 1, 0, 0, -1, -1, -1, -1, -1 ,1,0
1 , 574 , 0.02 , 1,  2.15234375 , 2.00292969, 0.14941406, 5, 0.00000000, 0, 270, 2, 0, 1, 0, 1, 0, 0, 0, -1, -1, -1, -1, -1 ,1,0
1 , 575 , 0.02 , 0,  1.56152344 , 1.43261719, 0.12890625, 5, 0.00000000, 0, 270, 1, 0, 1, 0, 1, 0, 0, 0, -1, -1, -1, -1, -1 ,1,0
1 , 576 , 0.40 , 1,  0.81933594 , 0.71875000, 0.10058594, 5, 0.00000000, 0, 270, 2, 0, 1, 0, 1, 0, 0, 0, -1, -1, -1, -1, -1 ,1,0
1 , 577 , 0.02 , 1,  1.06347656 , 0.89843750, 0.16503906, 5, 0.77148438, 2, 270, 1, 0, 1, 3, 1, 0, 3, 3, 0, 0, 0, 0, 0 ,1,0
1 , 578 , 0.02 , 1,  1.00000000 , 0.86425781, 0.13574219, 5, 0.00000000, 0, 270, 2, 0, 1, 3, 1, 0, 0, 0, 0, 0, 0, 0, 0 ,1,0
1 , 579 , 0.40 , 1,  0.83398438 , 0.65722656, 0.17675781, 5, 0.00000000, 0, 90, 2, 0, 1, 3, 1, 0, 0, 0, 0, 0, 0, 0, 0 ,1,0
1 , 580 , 0.40 , 1,  1.70800781 , 1.54589844, 0.16210938, 5, 0.00000000, 0, 90, 1, 0, 0, 3, 1, 0, 0, 0, 0, 0, 2, 0, 0 ,1,0
1 , 581 , 0.40 , 1,  1.00390625 , 0.84375000, 0.16015625, 5, 0.00000000, 0, 270, 1, 0, 1, 3, 1, 0, 0, 0, 0, 0, 0, 0, 0 ,1,0
1 , 582 , 0.40 , 0,  0.86425781 , 0.66015625, 0.20410156, 5, 3.65722656, 1, 270, 2, 0, 0, 3, 1, 0, 0, 0, 4, 0, 1, 0, 0 ,1,0
1 , 583 , 0.02 , 1,  1.23242188 , 1.11523438, 0.11718750, 5, 0.00000000, 0, 270, 1, 0, 0, 3, 1, 0, 0, 0, 0, 0, 2, 0, 0 ,1,0
1 , 584 , 0.02 , 0,  0.86035156 , 0.78320312, 0.07714844, 5, 0.00000000, 0, 90, 2, 0, 0, 3, 1, 0, 0, 0, 0, 0, 1, 0, 0 ,1,0
1 , 585 , 0.11 , 1,  1.23339844 , 1.14160156, 0.09179688, 5, 0.00000000, 0, 90, 2, 0, 0, 3, 1, 0, 0, 0, 0, 0, 1, 0, 0 ,1,0
1 , 586 , 0.02 , 0,  1.64941406 , 1.49609375, 0.15332031, 5, 0.00000000, 0, 270, 1, 0, 1, 3, 1, 0, 0, 0, 0, 0, 0, 0, 0 ,1,0
1 , 587 , 0.02 , 0,  0.69628906 , 0.59960938, 0.09667969, 5, 0.08886719, 2, 270, 1, 0, 1, 3, 1, 0, 10, 10, 0, 0, 0, 0, 0 ,1,0
1 , 588 , 0.02 , 0,  0.72265625 , 0.57031250, 0.15234375, 5, 0.00000000, 0, 90, 2, 0, 1, 3, 1, 0, 0, 0, 0, 0, 0, 0, 0 ,1,0
1 , 589 , 0.11 , 0,  0.77246094 , 0.62109375, 0.15136719, 5, 0.00000000, 0, 270, 1, 0, 1, 3, 1, 0, 0, 0, 0, 0, 0, 0, 0 ,1,0
1 , 590 , 0.11 , 1,  1.01367188 , 0.90332031, 0.11035156, 5, 0.00000000, 0, 270, 1, 0, 1, 3, 1, 0, 0, 0, 0, 0, 0, 0, 0 ,1,0
1 , 591 , 0.02 , 0,  0.79687500 , 0.61132812, 0.18554688, 5, 0.00000000, 0, 90, 2, 0, 1, 3, 1, 0, 0, 0, 0, 0, 0, 0, 0 ,1,0
1 , 592 , 0.02 , 1,  0.87011719 , 0.72656250, 0.14355469, 5, 0.56835938, 2, 270, 1, 0, 1, 3, 1, 0, 1, 1, 0, 0, 0, 0, 0 ,1,0
1 , 593 , 0.11 , 1,  1.19824219 , 1.08496094, 0.11328125, 5, 0.00000000, 0, 90, 1, 0, 0, 3, 1, 0, 0, 0, 0, 0, 0, 1, 1 ,1,0
1 , 594 , 0.40 , 1,  0.86523438 , 0.73925781, 0.12597656, 5, 0.00000000, 0, 90, 2, 0, 1, 3, 1, 0, 0, 0, 0, 0, 0, 0, 0 ,1,0
1 , 595 , 0.40 , 1,  1.00390625 , 0.85839844, 0.14550781, 5, 2.75390625, 2, 270, 1, 0, 1, 3, 1, 0, 0, 0, 0, 1, 0, 0, 0 ,1,0
1 , 596 , 0.40 , 0,  2.17675781 , 2.02441406, 0.15234375, 5, 0.00000000, 0, 90, 1, 0, 1, 3, 1, 0, 0, 0, 0, 0, 0, 0, 0 ,1,0
1 , 597 , 0.40 , 1,  0.76074219 , 0.65722656, 0.10351562, 5, 0.00000000, 0, 270, 2, 0, 0, 3, 1, 0, 0, 0, 0, 0, 1, 0, 0 ,1,0
1 , 598 , 0.40 , 1,  0.97656250 , 0.83886719, 0.13769531, 5, 0.00000000, 0, 90, 1, 0, 1, 3, 1, 0, 0, 0, 0, 0, 0, 0, 0 ,1,0
1 , 599 , 0.11 , 1,  0.69628906 , 0.52636719, 0.16992188, 5, 0.00000000, 0, 90, 1, 0, 1, 3, 1, 0, 0, 0, 0, 0, 0, 0, 0 ,1,0
1 , 600 , 0.11 , 0,  2.45898438 , 2.32031250, 0.13867188, 5, 0.00000000, 0, 90, 1, 0, 1, 3, 1, 0, 0, 0, 0, 0, 0, 0, 0 ,1,0
1 , 601 , 0.02 , 0,  0.81152344 , 0.78710938, 0.02441406, 5, 0.00000000, 0, 90, 2, 0, 0, 3, 1, 0, 0, 0, 0, 0, 1, 0, 0 ,1,0
1 , 602 , 0.11 , 0,  0.57617188 , 0.42285156, 0.15332031, 5, 0.00000000, 0, 90, 2, 0, 1, 3, 1, 0, 0, 0, 0, 0, 0, 0, 0 ,1,0
1 , 603 , 0.02 , 0,  0.83691406 , 0.70507812, 0.13183594, 5, 0.00000000, 0, 90, 2, 0, 0, 3, 1, 0, 0, 0, 0, 0, 1, 0, 0 ,1,0
1 , 604 , 0.11 , 0,  1.01953125 , 0.87695312, 0.14257812, 5, 0.00000000, 0, 90, 1, 0, 1, 3, 1, 0, 0, 0, 0, 0, 0, 0, 0 ,1,0
1 , 605 , 0.02 , 1,  0.42675781 , 0.27050781, 0.15625000, 5, 0.00000000, 0, 270, 2, 0, 1, 3, 1, 0, 0, 0, 0, 0, 0, 0, 0 ,1,0
1 , 606 , 0.02 , 0,  0.70214844 , 0.59472656, 0.10742188, 5, 1.96875000, 1, 270, 2, 0, 0, 3, 1, 1, 0, 0, 0, 0, 2, 0, 0 ,1,0
1 , 607 , 0.02 , 0,  0.72167969 , 0.51464844, 0.20703125, 5, 0.00000000, 0, 270, 2, 0, 1, 3, 1, 0, 0, 0, 0, 0, 0, 0, 0 ,1,0
1 , 608 , 0.02 , 1,  1.40527344 , 1.25781250, 0.14746094, 5, 0.00000000, 0, 90, 2, 0, 1, 3, 1, 0, 0, 0, 0, 0, 0, 0, 0 ,1,0
1 , 609 , 0.11 , 0,  0.98242188 , 0.84765625, 0.13476562, 5, 0.00000000, 0, 90, 2, 0, 1, 3, 1, 0, 0, 0, 0, 0, 0, 0, 0 ,1,0
1 , 610 , 0.02 , 1,  1.31835938 , 1.17773438, 0.14062500, 5, 0.00000000, 0, 90, 2, 0, 1, 3, 1, 0, 0, 0, 0, 0, 0, 0, 0 ,1,0
1 , 611 , 0.02 , 1,  0.90625000 , 0.78613281, 0.12011719, 5, 0.00000000, 0, 90, 1, 0, 0, 3, 1, 0, 0, 0, 0, 0, 2, 0, 0 ,1,0
1 , 612 , 0.11 , 1,  1.27734375 , 1.16796875, 0.10937500, 5, 0.00000000, 0, 270, 1, 0, 0, 3, 1, 0, 0, 0, 0, 0, 1, 0, 0 ,1,0
1 , 613 , 0.40 , 1,  1.23925781 , 1.15820312, 0.08105469, 5, 0.00000000, 0, 270, 1, 0, 0, 3, 1, 0, 0, 0, 0, 0, 1, 0, 0 ,1,0
1 , 614 , 0.02 , 1,  1.23535156 , 1.11718750, 0.11816406, 5, 0.00000000, 0, 270, 1, 0, 0, 3, 1, 0, 0, 0, 0, 0, 1, 4, 4 ,1,0
1 , 615 , 0.40 , 1,  0.71777344 , 0.59667969, 0.12109375, 5, 0.00000000, 0, 270, 2, 0, 1, 3, 1, 0, 0, 0, 0, 0, 0, 0, 0 ,1,0
1 , 616 , 0.11 , 1,  0.79199219 , 0.65527344, 0.13671875, 5, 0.00000000, 0, 270, 2, 0, 1, 3, 1, 0, 0, 0, 0, 0, 0, 0, 0 ,1,0
1 , 617 , 0.40 , 1,  0.96093750 , 0.78125000, 0.17968750, 5, 0.00000000, 0, 90, 2, 0, 1, 3, 1, 0, 0, 0, 0, 0, 0, 0, 0 ,1,0
1 , 618 , 0.40 , 1,  1.24804688 , 1.10546875, 0.14257812, 5, 0.00000000, 0, 270, 2, 0, 0, 3, 1, 0, 0, 0, 0, 0, 0, 1, 1 ,1,0
1 , 619 , 0.40 , 1,  1.23339844 , 1.10351562, 0.12988281, 5, 0.00000000, 0, 90, 2, 0, 1, 3, 1, 0, 0, 0, 0, 0, 0, 0, 0 ,1,0
1 , 620 , 0.11 , 1,  0.91699219 , 0.79882812, 0.11816406, 5, 0.00000000, 0, 90, 2, 0, 0, 3, 1, 0, 0, 0, 0, 0, 1, 0, 0 ,1,0
1 , 621 , 0.02 , 0,  1.84863281 , 1.68359375, 0.16503906, 5, 0.00000000, 0, 90, 1, 0, 0, 3, 1, 0, 0, 0, 0, 0, 2, 0, 0 ,1,0
1 , 622 , 0.11 , 1,  0.97460938 , 0.85058594, 0.12402344, 5, 0.00000000, 0, 90, 1, 0, 0, 3, 1, 0, 0, 0, 0, 0, 2, 0, 0 ,1,0
1 , 623 , 0.40 , 1,  0.67480469 , 0.60449219, 0.07031250, 5, 0.00000000, 0, 90, 1, 0, 0, 3, 1, 0, 0, 0, 0, 0, 1, 0, 0 ,1,0
1 , 624 , 0.11 , 1,  1.09277344 , 0.95410156, 0.13867188, 5, 0.00000000, 0, 270, 1, 0, 1, 3, 1, 0, 0, 0, 0, 0, 0, 0, 0 ,1,0
1 , 625 , 0.02 , 0,  0.89843750 , 0.73632812, 0.16210938, 5, 0.00000000, 0, 270, 2, 0, 0, 3, 1, 0, 0, 0, 0, 0, 1, 0, 0 ,1,0
1 , 626 , 0.11 , 1,  2.39160156 , 2.23339844, 0.15820312, 5, 0.00000000, 0, 270, 1, 0, 1, 3, 1, 0, 0, 0, 0, 0, 0, 0, 0 ,1,0
1 , 627 , 0.02 , 1,  1.72070312 , 1.54687500, 0.17382812, 5, 0.00000000, 0, 270, 2, 0, 0, 3, 1, 0, 0, 0, 0, 0, 1, 0, 0 ,1,0
1 , 628 , 0.40 , 1,  1.18457031 , 1.09472656, 0.08984375, 5, 0.00000000, 0, 270, 1, 0, 0, 3, 1, 0, 0, 0, 0, 0, 3, 0, 0 ,1,0
1 , 629 , 0.40 , 1,  0.61816406 , 0.47558594, 0.14257812, 5, 4.06347656, 2, 90, 1, 0, 1, 3, 1, 0, 0, 0, 0, 4, 0, 0, 0 ,1,0
1 , 630 , 0.40 , 1,  0.45800781 , 0.29296875, 0.16503906, 5, 0.00000000, 0, 270, 1, 0, 1, 3, 1, 0, 0, 0, 0, 0, 0, 0, 0 ,1,0
1 , 631 , 0.40 , 1,  0.91796875 , 0.78710938, 0.13085938, 5, 0.00000000, 0, 270, 2, 0, 1, 3, 1, 0, 0, 0, 0, 0, 0, 0, 0 ,1,0
1 , 632 , 0.40 , 1,  0.76855469 , 0.65917969, 0.10937500, 5, 0.00000000, 0, 270, 2, 0, 0, 3, 1, 0, 0, 0, 0, 0, 1, 0, 0 ,1,0
1 , 633 , 0.11 , 1,  1.04882812 , 0.88085938, 0.16796875, 5, 0.00000000, 0, 90, 2, 0, 1, 3, 1, 0, 0, 0, 0, 0, 0, 0, 0 ,1,0
1 , 634 , 0.40 , 1,  1.18066406 , 1.04589844, 0.13476562, 5, 0.00000000, 0, 270, 2, 0, 1, 3, 1, 0, 0, 0, 0, 0, 0, 0, 0 ,1,0
1 , 635 , 0.40 , 1,  1.22949219 , 1.07226562, 0.15722656, 5, 0.00000000, 0, 90, 1, 0, 0, 3, 1, 0, 0, 0, 0, 0, 1, 0, 0 ,1,0
1 , 636 , 0.11 , 0,  0.69238281 , 0.53125000, 0.16113281, 5, 0.00000000, 0, 270, 1, 0, 1, 3, 1, 0, 0, 0, 0, 0, 0, 0, 0 ,1,0
1 , 637 , 0.40 , 1,  0.93164062 , 0.80859375, 0.12304688, 5, 0.00000000, 0, 270, 2, 0, 1, 3, 1, 0, 0, 0, 0, 0, 0, 0, 0 ,1,0
1 , 638 , 0.11 , 0,  0.59863281 , 0.42871094, 0.16992188, 5, 0.00000000, 0, 270, 1, 0, 1, 3, 1, 0, 0, 0, 0, 0, 0, 0, 0 ,1,0
1 , 639 , 0.02 , 1,  0.46582031 , 0.37988281, 0.08593750, 5, 0.00000000, 0, 90, 2, 0, 0, 3, 1, 0, 0, 0, 0, 0, 1, 0, 0 ,1,0
1 , 640 , 0.02 , 1,  1.02929688 , 0.90917969, 0.12011719, 5, 0.00000000, 0, 270, 1, 0, 1, 3, 1, 0, 0, 0, 0, 0, 0, 0, 0 ,1,0
1 , 641 , 0.11 , 0,  1.09277344 , 0.96972656, 0.12304688, 5, 0.00000000, 0, 270, 1, 0, 0, 3, 1, 0, 0, 0, 0, 0, 1, 0, 0 ,1,0
1 , 642 , 0.11 , 1,  1.06640625 , 0.92968750, 0.13671875, 5, 0.00000000, 0, 270, 1, 0, 1, 3, 1, 0, 0, 0, 0, 0, 0, 0, 0 ,1,0
1 , 643 , 0.11 , 1,  0.99804688 , 0.91796875, 0.08007812, 5, 0.00000000, 0, 90, 1, 0, 0, 3, 1, 0, 0, 0, 0, 0, 1, 1, 1 ,1,0
1 , 644 , 0.02 , 1,  0.96875000 , 0.86425781, 0.10449219, 5, 0.00000000, 0, 90, 2, 0, 1, 3, 1, 0, 0, 0, 0, 0, 0, 0, 0 ,1,0
1 , 645 , 0.40 , 1,  0.80371094 , 0.65332031, 0.15039062, 5, 0.00000000, 0, 90, 1, 0, 1, 3, 1, 0, 0, 0, 0, 0, 0, 0, 0 ,1,0
1 , 646 , 0.40 , 1,  0.84863281 , 0.67089844, 0.17773438, 5, 4.18554688, 2, 270, 1, 0, 1, 3, 1, 0, 0, 0, 0, 1, 0, 0, 0 ,1,0
1 , 647 , 0.02 , 1,  0.83007812 , 0.68457031, 0.14550781, 5, 0.00000000, 0, 90, 2, 0, 0, 3, 1, 0, 0, 0, 0, 0, 1, 0, 0 ,1,0
1 , 648 , 0.40 , 1,  0.73242188 , 0.58496094, 0.14746094, 5, 0.00000000, 0, 90, 1, 0, 1, 3, 1, 0, 0, 0, 0, 0, 0, 0, 0 ,1,0
1 , 649 , 0.40 , 1,  0.94824219 , 0.85058594, 0.09765625, 5, 0.00000000, 0, 270, 1, 0, 0, 3, 1, 0, 0, 0, 0, 0, 1, 0, 0 ,1,0
1 , 650 , 0.11 , 1,  0.85839844 , 0.75781250, 0.10058594, 5, 0.00000000, 0, 270, 1, 0, 0, 3, 1, 0, 0, 0, 0, 0, 1, 1, 1 ,1,0
1 , 651 , 0.11 , 1,  1.55859375 , 1.38378906, 0.17480469, 5, 0.00000000, 0, 90, 1, 0, 1, 3, 1, 0, 0, 0, 0, 0, 0, 0, 0 ,1,0
1 , 652 , 0.02 , 0,  0.71386719 , 0.52636719, 0.18750000, 5, 0.00000000, 0, 90, 2, 0, 1, 3, 1, 0, 0, 0, 0, 0, 0, 0, 0 ,1,0
1 , 653 , 0.02 , 1,  0.78710938 , 0.64550781, 0.14160156, 5, 0.00000000, 0, 270, 2, 0, 0, 3, 1, 0, 0, 0, 0, 0, 2, 0, 0 ,1,0
1 , 654 , 0.11 , 1,  1.21093750 , 1.04199219, 0.16894531, 5, 0.00000000, 0, 90, 2, 0, 0, 3, 1, 0, 0, 0, 0, 0, 0, 1, 1 ,1,0
1 , 655 , 0.11 , 0,  1.59082031 , 1.51464844, 0.07617188, 5, 0.00000000, 0, 90, 1, 0, 0, 3, 1, 0, 0, 0, 0, 0, 2, 0, 0 ,1,0
1 , 656 , 0.02 , 1,  1.19531250 , 1.05371094, 0.14160156, 5, 0.00000000, 0, 90, 2, 0, 0, 3, 1, 0, 0, 0, 0, 0, 2, 1, 1 ,1,0
1 , 657 , 0.11 , 0,  1.38769531 , 1.24804688, 0.13964844, 5, 0.00000000, 0, 270, 2, 0, 0, 3, 1, 0, 0, 0, 0, 0, 1, 0, 0 ,1,0
1 , 658 , 0.11 , 0,  0.48632812 , 0.35644531, 0.12988281, 5, 0.00000000, 0, 270, 1, 0, 0, 3, 1, 0, 0, 0, 0, 0, 1, 0, 0 ,1,0
1 , 659 , 0.11 , 1,  0.82324219 , 0.70800781, 0.11523438, 5, 0.00000000, 0, 270, 2, 0, 0, 3, 1, 0, 0, 0, 0, 0, 1, 0, 0 ,1,0
1 , 660 , 0.11 , 0,  0.82812500 , 0.65917969, 0.16894531, 5, 0.00000000, 0, 270, 1, 0, 1, 3, 1, 0, 0, 0, 0, 0, 0, 0, 0 ,1,0
1 , 661 , 0.11 , 0,  0.89941406 , 0.80078125, 0.09863281, 5, 0.00000000, 0, 270, 2, 0, 0, 3, 1, 0, 0, 0, 0, 0, 2, 0, 0 ,1,0
1 , 662 , 0.02 , 1,  0.79687500 , 0.65429688, 0.14257812, 5, 0.00000000, 0, 270, 2, 0, 1, 3, 1, 0, 0, 0, 0, 0, 0, 0, 0 ,1,0
1 , 663 , 0.40 , 1,  0.90234375 , 0.63281250, 0.26953125, 5, 2.64550781, 1, 90, 1, 0, 1, 3, 1, 0, 0, 0, 1, 2, 0, 0, 0 ,1,0
1 , 664 , 0.40 , 1,  0.98925781 , 0.78613281, 0.20312500, 5, 0.00000000, 0, 90, 2, 0, 1, 3, 1, 0, 0, 0, 0, 0, 0, 0, 0 ,1,0
1 , 665 , 0.40 , 1,  0.68750000 , 0.53906250, 0.14843750, 5, 0.00000000, 0, 90, 2, 0, 1, 3, 1, 0, 0, 0, 0, 0, 0, 0, 0 ,1,0
1 , 666 , 0.02 , 1,  2.14550781 , 1.98242188, 0.16308594, 5, 0.00000000, 0, 90, 1, 0, 1, 3, 1, 0, 0, 0, 0, 0, 0, 0, 0 ,1,0
1 , 667 , 0.40 , 1,  0.92578125 , 0.78222656, 0.14355469, 5, 0.00000000, 0, 90, 2, 0, 0, 3, 1, 0, 0, 0, 0, 0, 1, 0, 0 ,1,0
1 , 668 , 0.40 , 1,  1.46777344 , 1.33886719, 0.12890625, 5, 0.00000000, 0, 270, 2, 0, 1, 3, 1, 0, 0, 0, 0, 0, 0, 0, 0 ,1,0
1 , 669 , 0.02 , 0,  1.91210938 , 1.76269531, 0.14941406, 5, 0.00000000, 0, 90, 1, 0, 0, 3, 1, 0, 0, 0, 0, 0, 0, 1, 1 ,1,0
1 , 670 , 0.02 , 1,  0.85644531 , 0.67773438, 0.17871094, 5, 0.00000000, 0, 270, 2, 0, 1, 3, 1, 0, 0, 0, 0, 0, 0, 0, 0 ,1,0
1 , 671 , 0.11 , 1,  0.73046875 , 0.57226562, 0.15820312, 5, 0.00000000, 0, 90, 1, 0, 1, 3, 1, 0, 0, 0, 0, 0, 0, 0, 0 ,1,0
1 , 672 , 0.11 , 1,  1.73437500 , 1.67773438, 0.05664062, 5, 0.00000000, 0, 90, 2, 0, 0, 3, 1, 0, 0, 0, 0, 0, 3, 0, 0 ,1,0
1 , 673 , 0.11 , 1,  1.05957031 , 0.91601562, 0.14355469, 5, 0.05371094, 1, 90, 2, 0, 1, 7, 1, 1, 0, 0, 0, 0, 0, 0, 0 ,1,0
1 , 674 , 0.02 , 0,  1.03222656 , 0.89746094, 0.13476562, 5, 0.00000000, 0, 270, 1, 0, 1, 7, 1, 0, 0, 0, 0, 0, 0, 0, 0 ,1,0
1 , 675 , 0.40 , 1,  0.85351562 , 0.71972656, 0.13378906, 5, 0.00000000, 0, 270, 2, 0, 1, 7, 1, 0, 0, 0, 0, 0, 0, 0, 0 ,1,0
1 , 676 , 0.40 , 1,  2.07714844 , 1.95019531, 0.12695312, 5, 6.53320312, 1, 90, 1, 0, 0, 7, 1, 0, 0, 0, 2, 1, 3, 0, 0 ,1,0
1 , 677 , 0.11 , 1,  2.58007812 , 2.45312500, 0.12695312, 5, 0.00000000, 0, 90, 2, 0, 0, 7, 1, 0, 0, 0, 0, 0, 3, 0, 0 ,1,0
1 , 678 , 0.40 , 1,  1.50683594 , 1.34082031, 0.16601562, 5, 0.00000000, 0, 90, 2, 0, 1, 7, 1, 0, 0, 0, 0, 0, 0, 0, 0 ,1,0
1 , 679 , 0.02 , 0,  1.05859375 , 0.98339844, 0.07519531, 5, 0.00000000, 0, 90, 1, 0, 0, 7, 1, 0, 0, 0, 0, 0, 1, 0, 0 ,1,0
1 , 680 , 0.40 , 1,  1.33007812 , 1.23437500, 0.09570312, 5, 0.00000000, 0, 270, 1, 0, 0, 7, 1, 0, 0, 0, 0, 0, 1, 0, 0 ,1,0
1 , 681 , 0.40 , 1,  1.01074219 , 0.91796875, 0.09277344, 5, 0.00000000, 0, 270, 2, 0, 0, 7, 1, 0, 0, 0, 0, 0, 1, 0, 0 ,1,0
1 , 682 , 0.11 , 0,  0.77050781 , 0.62597656, 0.14453125, 5, 4.82421875, 2, 90, 2, 0, 1, 7, 1, 0, 0, 0, 0, 1, 0, 0, 0 ,1,0
1 , 683 , 0.40 , 1,  0.82421875 , 0.63867188, 0.18554688, 5, 0.00000000, 0, 270, 2, 0, 0, 7, 1, 0, 0, 0, 0, 0, 0, 1, 1 ,1,0
1 , 684 , 0.40 , 1,  0.82812500 , 0.64453125, 0.18359375, 5, 0.00000000, 0, 270, 1, 0, 1, 7, 1, 0, 0, 0, 0, 0, 0, 0, 0 ,1,0
1 , 685 , 0.11 , 0,  0.92675781 , 0.79394531, 0.13281250, 5, 0.00000000, 0, 270, 1, 0, 0, 7, 1, 0, 0, 0, 0, 0, 1, 0, 0 ,1,0
1 , 686 , 0.11 , 1,  0.99023438 , 0.86132812, 0.12890625, 5, 0.00000000, 0, 90, 1, 0, 0, 7, 1, 0, 0, 0, 0, 0, 1, 0, 0 ,1,0
1 , 687 , 0.40 , 1,  3.12402344 , 2.94335938, 0.18066406, 5, 0.00000000, 0, 270, 1, 0, 0, 7, 1, 0, 0, 0, 0, 0, 1, 1, 1 ,1,0
1 , 688 , 0.40 , 1,  2.66406250 , 2.57324219, 0.09082031, 5, 0.00000000, 0, 270, 1, 0, 0, 7, 1, 0, 0, 0, 0, 0, 2, 1, 1 ,1,0
1 , 689 , 0.11 , 1,  0.75781250 , 0.69824219, 0.05957031, 5, 0.00000000, 0, 90, 1, 0, 0, 7, 1, 0, 0, 0, 0, 0, 2, 0, 0 ,1,0
1 , 690 , 0.02 , 1,  2.16796875 , 2.03808594, 0.12988281, 5, 5.48339844, 1, 90, 2, 0, 0, 7, 1, 0, 0, 0, 1, 0, 1, 1, 1 ,1,0
1 , 691 , 0.11 , 1,  0.97070312 , 0.89257812, 0.07812500, 5, 0.00000000, 0, 270, 1, 0, 0, 7, 1, 0, 0, 0, 0, 0, 1, 0, 0 ,1,0
1 , 692 , 0.02 , 0,  0.95117188 , 0.78515625, 0.16601562, 5, 0.00000000, 0, 270, 1, 0, 1, 7, 1, 0, 0, 0, 0, 0, 0, 0, 0 ,1,0
1 , 693 , 0.40 , 1,  1.38378906 , 1.20605469, 0.17773438, 5, 0.00000000, 0, 270, 2, 0, 1, 7, 1, 0, 0, 0, 0, 0, 0, 0, 0 ,1,0
1 , 694 , 0.02 , 0,  1.09570312 , 1.01171875, 0.08398438, 5, 0.00000000, 0, 270, 2, 0, 0, 7, 1, 0, 0, 0, 0, 0, 3, 0, 0 ,1,0
1 , 695 , 0.11 , 1,  1.20507812 , 1.06640625, 0.13867188, 5, 5.34277344, 2, 90, 1, 0, 0, 7, 1, 0, 0, 0, 0, 1, 1, 0, 0 ,1,0
1 , 696 , 0.11 , 0,  0.87792969 , 0.69726562, 0.18066406, 5, 0.00000000, 0, 270, 2, 0, 1, 7, 1, 0, 0, 0, 0, 0, 0, 0, 0 ,1,0
1 , 697 , 0.11 , 1,  0.86230469 , 0.79785156, 0.06445312, 5, 0.00000000, 0, 90, 1, 0, 0, 7, 1, 0, 0, 0, 0, 0, 1, 0, 0 ,1,0
1 , 698 , 0.40 , 1,  0.69335938 , 0.56542969, 0.12792969, 5, 2.82910156, 2, 90, 2, 0, 1, 7, 1, 0, 0, 0, 0, 5, 0, 0, 0 ,1,0
1 , 699 , 0.11 , 0,  1.07617188 , 0.93652344, 0.13964844, 5, 0.00000000, 0, 90, 1, 0, 0, 7, 1, 0, 0, 0, 0, 0, 2, 0, 0 ,1,0
1 , 700 , 0.11 , 1,  1.29003906 , 1.13476562, 0.15527344, 5, 0.00000000, 0, 270, 1, 0, 1, 7, 1, 0, 0, 0, 0, 0, 0, 0, 0 ,1,0
1 , 701 , 0.11 , 0,  0.82617188 , 0.65820312, 0.16796875, 5, 3.88964844, 1, 270, 2, 0, 1, 7, 1, 0, 0, 0, 1, 0, 0, 0, 0 ,1,0
1 , 702 , 0.11 , 1,  1.15820312 , 0.93945312, 0.21875000, 5, 0.00000000, 0, 90, 1, 0, 1, 7, 1, 0, 0, 0, 0, 0, 0, 0, 0 ,1,0
1 , 703 , 0.02 , 0,  1.15136719 , 1.07324219, 0.07812500, 5, 0.00000000, 0, 90, 2, 0, 0, 7, 1, 0, 0, 0, 0, 0, 2, 0, 0 ,1,0
1 , 704 , 0.02 , 1,  0.89257812 , 0.69042969, 0.20214844, 5, 0.00000000, 0, 90, 1, 0, 1, 7, 1, 0, 0, 0, 0, 0, 0, 0, 0 ,1,0
1 , 705 , 0.40 , 1,  0.99902344 , 0.89843750, 0.10058594, 5, 0.00000000, 0, 90, 1, 0, 0, 7, 1, 0, 0, 0, 0, 0, 1, 0, 0 ,1,0
1 , 706 , 0.40 , 1,  0.89453125 , 0.75976562, 0.13476562, 5, 0.00000000, 0, 90, 2, 0, 0, 7, 1, 0, 0, 0, 0, 0, 1, 0, 0 ,1,0
1 , 707 , 0.02 , 1,  1.52734375 , 1.44531250, 0.08203125, 5, 0.00000000, 0, 90, 2, 0, 0, 7, 1, 0, 0, 0, 0, 0, 1, 1, 1 ,1,0
1 , 708 , 0.40 , 1,  1.11035156 , 1.03222656, 0.07812500, 5, 0.00000000, 0, 270, 1, 0, 0, 7, 1, 0, 0, 0, 0, 0, 1, 0, 0 ,1,0
1 , 709 , 0.02 , 1,  0.89257812 , 0.69238281, 0.20019531, 5, 0.00000000, 0, 90, 1, 0, 1, 7, 1, 0, 0, 0, 0, 0, 0, 0, 0 ,1,0
1 , 710 , 0.02 , 0,  0.80664062 , 0.65722656, 0.14941406, 5, 0.00000000, 0, 270, 1, 0, 0, 7, 1, 0, 0, 0, 0, 0, 1, 0, 0 ,1,0
1 , 711 , 0.02 , 1,  1.82421875 , 1.66308594, 0.16113281, 5, 0.00000000, 0, 90, 2, 0, 1, 7, 1, 0, 0, 0, 0, 0, 0, 0, 0 ,1,0
1 , 712 , 0.40 , 1,  1.76074219 , 1.64648438, 0.11425781, 5, 0.00000000, 0, 90, 2, 0, 0, 7, 1, 0, 0, 0, 0, 0, 2, 0, 0 ,1,0
1 , 713 , 0.02 , 1,  2.16894531 , 2.01367188, 0.15527344, 5, 0.00000000, 0, 90, 2, 0, 0, 7, 1, 0, 0, 0, 0, 0, 0, 2, 2 ,1,0
1 , 714 , 0.02 , 0,  1.50097656 , 1.37402344, 0.12695312, 5, 0.00000000, 0, 270, 2, 0, 0, 7, 1, 0, 0, 0, 0, 0, 2, 0, 0 ,1,0
1 , 715 , 0.11 , 1,  2.11230469 , 2.01464844, 0.09765625, 5, 0.00000000, 0, 270, 1, 0, 0, 7, 1, 0, 0, 0, 0, 0, 1, 0, 0 ,1,0
1 , 716 , 0.40 , 1,  1.07519531 , 0.91308594, 0.16210938, 5, 0.00000000, 0, 270, 1, 0, 1, 7, 1, 0, 0, 0, 0, 0, 0, 0, 0 ,1,0
1 , 717 , 0.02 , 1,  1.50390625 , 1.35644531, 0.14746094, 5, 0.00000000, 0, 90, 1, 0, 0, 7, 1, 0, 0, 0, 0, 0, 3, 0, 0 ,1,0
1 , 718 , 0.11 , 1,  0.81054688 , 0.68457031, 0.12597656, 5, 7.96679688, 1, 270, 2, 0, 1, 7, 1, 0, 0, 0, 1, 0, 0, 0, 0 ,1,0
1 , 719 , 0.02 , 0,  1.28417969 , 1.13183594, 0.15234375, 5, 0.68847656, 2, 90, 1, 0, 0, 7, 1, 0, 11, 11, 1, 0, 1, 0, 0 ,1,0
1 , 720 , 0.11 , 0,  1.23535156 , 1.11914062, 0.11621094, 5, 0.00000000, 0, 270, 1, 0, 0, 7, 1, 0, 0, 0, 0, 0, 1, 0, 0 ,1,0
1 , 721 , 0.02 , 0,  0.86132812 , 0.76269531, 0.09863281, 5, 0.00000000, 0, 270, 2, 0, 0, 7, 1, 0, 0, 0, 0, 0, 1, 0, 0 ,1,0
1 , 722 , 0.11 , 0,  1.41210938 , 1.27636719, 0.13574219, 5, 0.00000000, 0, 90, 2, 0, 0, 7, 1, 0, 0, 0, 0, 0, 0, 1, 1 ,1,0
1 , 723 , 0.02 , 1,  1.05957031 , 0.91015625, 0.14941406, 5, 0.00000000, 0, 270, 1, 0, 1, 7, 1, 0, 0, 0, 0, 0, 0, 0, 0 ,1,0
1 , 724 , 0.40 , 1,  1.01367188 , 0.89648438, 0.11718750, 5, 0.00000000, 0, 90, 1, 0, 0, 7, 1, 0, 0, 0, 0, 0, 1, 0, 0 ,1,0
1 , 725 , 0.11 , 0,  0.99902344 , 0.91601562, 0.08300781, 5, 0.00000000, 0, 270, 2, 0, 0, 7, 1, 0, 0, 0, 0, 0, 1, 0, 0 ,1,0
1 , 726 , 0.02 , 0,  1.09667969 , 0.91601562, 0.18066406, 5, 0.00000000, 0, 270, 1, 0, 1, 7, 1, 0, 0, 0, 0, 0, 0, 0, 0 ,1,0
1 , 727 , 0.02 , 1,  0.96679688 , 0.84667969, 0.12011719, 5, 0.00000000, 0, 270, 2, 0, 0, 7, 1, 0, 0, 0, 0, 0, 1, 0, 0 ,1,0
1 , 728 , 0.02 , 0,  1.64453125 , 1.47460938, 0.16992188, 5, 0.00000000, 0, 90, 1, 0, 0, 7, 1, 0, 0, 0, 0, 0, 1, 0, 0 ,1,0
1 , 729 , 0.11 , 0,  1.74414062 , 1.58593750, 0.15820312, 5, 0.69726562, 2, 90, 1, 0, 0, 7, 1, 0, 1, 1, 0, 1, 1, 0, 0 ,1,0
1 , 730 , 0.11 , 1,  1.46875000 , 1.28808594, 0.18066406, 5, 0.00000000, 0, 270, 1, 0, 1, 7, 1, 0, 0, 0, 0, 0, 0, 0, 0 ,1,0
1 , 731 , 0.40 , 1,  1.63671875 , 1.56152344, 0.07519531, 5, 0.00000000, 0, 90, 1, 0, 0, 7, 1, 0, 0, 0, 0, 0, 2, 0, 0 ,1,0
1 , 732 , 0.11 , 1,  2.18359375 , 2.06054688, 0.12304688, 5, 5.44238281, 1, 270, 2, 0, 0, 7, 1, 0, 0, 0, 1, 0, 1, 0, 0 ,1,0
1 , 733 , 0.02 , 1,  0.67578125 , 0.48828125, 0.18750000, 5, 0.00000000, 0, 270, 2, 0, 1, 7, 1, 0, 0, 0, 0, 0, 0, 0, 0 ,1,0
1 , 734 , 0.11 , 1,  1.05957031 , 0.89843750, 0.16113281, 5, 0.00000000, 0, 270, 2, 0, 1, 7, 1, 0, 0, 0, 0, 0, 0, 0, 0 ,1,0
1 , 735 , 0.11 , 1,  1.38281250 , 1.26269531, 0.12011719, 5, 0.00000000, 0, 90, 1, 0, 0, 7, 1, 0, 0, 0, 0, 0, 3, 0, 0 ,1,0
1 , 736 , 0.40 , 1,  0.62597656 , 0.44628906, 0.17968750, 5, 0.00000000, 0, 90, 1, 0, 1, 7, 1, 0, 0, 0, 0, 0, 0, 0, 0 ,1,0
1 , 737 , 0.40 , 1,  1.09277344 , 1.03222656, 0.06054688, 5, 0.00000000, 0, 90, 2, 0, 0, 7, 1, 0, 0, 0, 0, 0, 1, 0, 0 ,1,0
1 , 738 , 0.02 , 0,  0.48339844 , 0.33398438, 0.14941406, 5, 0.08300781, 1, 270, 2, 0, 1, 7, 1, 1, 0, 0, 0, 2, 0, 0, 0 ,1,0
1 , 739 , 0.40 , 1,  0.91503906 , 0.70214844, 0.21289062, 5, 0.00000000, 0, 90, 1, 0, 1, 7, 1, 0, 0, 0, 0, 0, 0, 0, 0 ,1,0
1 , 740 , 0.40 , 1,  0.69433594 , 0.55078125, 0.14355469, 5, 4.91015625, 2, 90, 1, 0, 1, 7, 1, 0, 0, 0, 0, 1, 0, 0, 0 ,1,0
1 , 741 , 0.40 , 1,  1.84765625 , 1.70507812, 0.14257812, 5, 0.00000000, 0, 270, 2, 0, 1, 7, 1, 0, 0, 0, 0, 0, 0, 0, 0 ,1,0
1 , 742 , 0.40 , 1,  1.65722656 , 1.52246094, 0.13476562, 5, 0.00000000, 0, 90, 2, 0, 1, 7, 1, 0, 0, 0, 0, 0, 0, 0, 0 ,1,0
1 , 743 , 0.40 , 1,  1.93652344 , 1.81152344, 0.12500000, 5, 0.00000000, 0, 270, 2, 0, 0, 7, 1, 0, 0, 0, 0, 0, 1, 0, 0 ,1,0
1 , 744 , 0.02 , 1,  1.76953125 , 1.60644531, 0.16308594, 5, 0.00000000, 0, 90, 1, 0, 0, 7, 1, 0, 0, 0, 0, 0, 1, 1, 1 ,1,0
1 , 745 , 0.11 , 1,  0.72363281 , 0.53320312, 0.19042969, 5, 0.00000000, 0, 270, 2, 0, 1, 7, 1, 0, 0, 0, 0, 0, 0, 0, 0 ,1,0
1 , 746 , 0.02 , 1,  1.12695312 , 0.90625000, 0.22070312, 5, 0.00000000, 0, 270, 1, 0, 1, 7, 1, 0, 0, 0, 0, 0, 0, 0, 0 ,1,0
1 , 747 , 0.11 , 0,  0.74023438 , 0.54687500, 0.19335938, 5, 0.00000000, 0, 270, 1, 0, 1, 7, 1, 0, 0, 0, 0, 0, 0, 0, 0 ,1,0
1 , 748 , 0.02 , 0,  1.51269531 , 1.45214844, 0.06054688, 5, 0.00000000, 0, 90, 2, 0, 0, 7, 1, 0, 0, 0, 0, 0, 2, 0, 0 ,1,0
1 , 749 , 0.11 , 1,  0.93652344 , 0.88378906, 0.05273438, 5, 0.00000000, 0, 270, 1, 0, 0, 7, 1, 0, 0, 0, 0, 0, 3, 0, 0 ,1,0
1 , 750 , 0.11 , 1,  1.03808594 , 0.86816406, 0.16992188, 5, 0.00000000, 0, 90, 2, 0, 0, 7, 1, 0, 0, 0, 0, 0, 1, 0, 0 ,1,0
1 , 751 , 0.02 , 0,  1.46484375 , 1.30566406, 0.15917969, 5, 2.91503906, 2, 270, 1, 0, 0, 7, 1, 0, 0, 0, 3, 3, 1, 0, 0 ,1,0
1 , 752 , 0.02 , 0,  0.80175781 , 0.71679688, 0.08496094, 5, 0.00000000, 0, 270, 2, 0, 0, 7, 1, 0, 0, 0, 0, 0, 1, 0, 0 ,1,0
1 , 753 , 0.02 , 0,  1.79980469 , 1.67871094, 0.12109375, 5, 5.45605469, 1, 90, 1, 0, 1, 7, 1, 0, 0, 0, 1, 0, 0, 0, 0 ,1,0
1 , 754 , 0.02 , 0,  1.36328125 , 1.26660156, 0.09667969, 5, 0.00000000, 0, 90, 2, 0, 0, 7, 1, 0, 0, 0, 0, 0, 2, 1, 1 ,1,0
1 , 755 , 0.11 , 1,  0.89746094 , 0.74707031, 0.15039062, 5, 0.00000000, 0, 90, 2, 0, 1, 7, 1, 0, 0, 0, 0, 0, 0, 0, 0 ,1,0
1 , 756 , 0.40 , 1,  1.41308594 , 1.30859375, 0.10449219, 5, 0.00000000, 0, 90, 2, 0, 0, 7, 1, 0, 0, 0, 0, 0, 1, 0, 0 ,1,0
1 , 757 , 0.40 , 1,  1.24902344 , 1.14453125, 0.10449219, 5, 4.21191406, 2, 270, 2, 0, 0, 7, 1, 0, 0, 0, 0, 5, 0, 1, 1 ,1,0
1 , 758 , 0.11 , 1,  1.14843750 , 1.04589844, 0.10253906, 5, 0.00000000, 0, 90, 2, 0, 0, 7, 1, 0, 0, 0, 0, 0, 1, 0, 0 ,1,0
1 , 759 , 0.11 , 1,  0.94921875 , 0.83300781, 0.11621094, 5, 0.00000000, 0, 270, 2, 0, 1, 7, 1, 0, 0, 0, 0, 0, 0, 0, 0 ,1,0
1 , 760 , 0.40 , 1,  0.86523438 , 0.76171875, 0.10351562, 5, 0.00000000, 0, 90, 2, 0, 1, 7, 1, 0, 0, 0, 0, 0, 0, 0, 0 ,1,0
1 , 761 , 0.02 , 1,  1.29003906 , 1.16015625, 0.12988281, 5, 0.00000000, 0, 270, 1, 0, 0, 7, 1, 0, 0, 0, 0, 0, 1, 0, 0 ,1,0
1 , 762 , 0.40 , 1,  1.59179688 , 1.40527344, 0.18652344, 5, 0.00000000, 0, 270, 1, 0, 1, 7, 1, 0, 0, 0, 0, 0, 0, 0, 0 ,1,0
1 , 763 , 0.11 , 0,  1.81835938 , 1.67480469, 0.14355469, 5, 0.00000000, 0, 90, 1, 0, 1, 7, 1, 0, 0, 0, 0, 0, 0, 0, 0 ,1,0
1 , 764 , 0.02 , 1,  1.16113281 , 1.01562500, 0.14550781, 5, 0.00000000, 0, 270, 2, 0, 0, 7, 1, 0, 0, 0, 0, 0, 1, 1, 1 ,1,0
1 , 765 , 0.40 , 1,  1.26562500 , 1.15527344, 0.11035156, 5, 1.51269531, 2, 270, 1, 0, 1, 7, 1, 0, 3, 3, 0, 5, 0, 0, 0 ,1,0
1 , 766 , 0.40 , 0,  1.03515625 , 0.95703125, 0.07812500, 5, 0.00000000, 0, 270, 1, 0, 0, 7, 1, 0, 0, 0, 0, 0, 1, 0, 0 ,1,0
1 , 767 , 0.02 , 1,  1.55566406 , 1.47949219, 0.07617188, 5, 0.00000000, 0, 90, 1, 0, 0, 7, 1, 0, 0, 0, 0, 0, 1, 0, 0 ,1,0
1 , 768 , 0.40 , 1,  0.80175781 , 0.69726562, 0.10449219, 5, 0.00000000, 0, 90, 1, 0, 0, 7, 1, 0, 0, 0, 0, 0, 1, 0, 0 ,1,0
1 , 769 , 0.02 , 1,  1.29101562 , 1.09765625, 0.19335938, 5, 2.67968750, 1, 270, 2, 0, 1, 5, 1, 0, 0, 0, 1, 0, 0, 0, 0 ,1,0
1 , 770 , 0.02 , 0,  2.04785156 , 1.87988281, 0.16796875, 5, 0.00000000, 0, 270, 2, 0, 0, 5, 1, 0, 0, 0, 0, 0, 5, 0, 0 ,1,0
1 , 771 , 0.11 , 0,  1.20410156 , 1.02636719, 0.17773438, 5, 0.00000000, 0, 270, 2, 0, 1, 5, 1, 0, 0, 0, 0, 0, 0, 0, 0 ,1,0
1 , 772 , 0.02 , 1,  1.64746094 , 1.57226562, 0.07519531, 5, 0.00000000, 0, 90, 1, 0, 0, 5, 1, 0, 0, 0, 0, 0, 2, 1, 1 ,1,0
1 , 773 , 0.40 , 1,  2.20214844 , 2.09472656, 0.10742188, 5, 0.00000000, 0, 270, 1, 0, 0, 5, 1, 0, 0, 0, 0, 0, 2, 3, 3 ,1,0
1 , 774 , 0.11 , 1,  1.12792969 , 1.01171875, 0.11621094, 5, 0.00000000, 0, 270, 2, 0, 0, 5, 1, 0, 0, 0, 0, 0, 4, 0, 0 ,1,0
1 , 775 , 0.40 , 1,  2.28808594 , 2.13183594, 0.15625000, 5, 0.00000000, 0, 270, 1, 0, 0, 5, 1, 0, 0, 0, 0, 0, 1, 0, 0 ,1,0
1 , 776 , 0.11 , 1,  1.31738281 , 1.16796875, 0.14941406, 5, 0.00000000, 0, 90, 1, 0, 0, 5, 1, 0, 0, 0, 0, 0, 0, 3, 3 ,1,0
1 , 777 , 0.40 , 1,  2.27734375 , 2.11035156, 0.16699219, 5, 0.00000000, 0, 90, 2, 0, 0, 5, 1, 0, 0, 0, 0, 0, 11, 0, 0 ,1,0
1 , 778 , 0.40 , 1,  1.26562500 , 1.03613281, 0.22949219, 5, 0.00000000, 0, 270, 2, 0, 1, 5, 1, 0, 0, 0, 0, 0, 0, 0, 0 ,1,0
1 , 779 , 0.40 , 1,  1.90136719 , 1.68066406, 0.22070312, 5, 0.00000000, 0, 270, 2, 0, 0, 5, 1, 0, 0, 0, 0, 0, 1, 0, 0 ,1,0
1 , 780 , 0.40 , 1,  0.82128906 , 0.72851562, 0.09277344, 5, 0.00000000, 0, 270, 1, 0, 0, 5, 1, 0, 0, 0, 0, 0, 1, 0, 0 ,1,0
1 , 781 , 0.02 , 1,  0.97070312 , 0.72070312, 0.25000000, 5, 1.65136719, 1, 90, 2, 0, 0, 5, 1, 1, 0, 0, 0, 0, 1, 0, 0 ,1,0
1 , 782 , 0.11 , 1,  2.83398438 , 2.70117188, 0.13281250, 5, 0.00000000, 0, 90, 2, 0, 0, 5, 1, 0, 0, 0, 0, 0, 4, 0, 0 ,1,0
1 , 783 , 0.40 , 0,  2.65625000 , 2.61035156, 0.04589844, 5, 0.00000000, 0, 90, 1, 0, 0, 5, 1, 0, 0, 0, 0, 0, 2, 0, 0 ,1,0
1 , 784 , 0.40 , 1,  1.75195312 , 1.52148438, 0.23046875, 5, 1.85156250, 1, 270, 2, 0, 0, 5, 1, 1, 0, 0, 2, 0, 7, 0, 0 ,1,0
1 , 785 , 0.11 , 1,  0.87695312 , 0.66503906, 0.21191406, 5, 0.00000000, 0, 270, 2, 0, 0, 5, 1, 0, 0, 0, 0, 0, 1, 0, 0 ,1,0
1 , 786 , 0.11 , 1,  1.76562500 , 1.69335938, 0.07226562, 5, 0.00000000, 0, 270, 1, 0, 0, 5, 1, 0, 0, 0, 0, 0, 1, 0, 0 ,1,0
1 , 787 , 0.40 , 1,  2.36523438 , 2.23437500, 0.13085938, 5, 0.00000000, 0, 90, 1, 0, 0, 5, 1, 0, 0, 0, 0, 0, 2, 1, 1 ,1,0
1 , 788 , 0.11 , 1,  0.84472656 , 0.69042969, 0.15429688, 5, 0.00000000, 0, 90, 1, 0, 1, 5, 1, 0, 0, 0, 0, 0, 0, 0, 0 ,1,0
1 , 789 , 0.11 , 1,  0.87500000 , 0.77050781, 0.10449219, 5, 0.00000000, 0, 90, 2, 0, 0, 5, 1, 0, 0, 0, 0, 0, 1, 0, 0 ,1,0
1 , 790 , 0.02 , 0,  0.83300781 , 0.75390625, 0.07910156, 5, 0.00000000, 0, 270, 1, 0, 0, 5, 1, 0, 0, 0, 0, 0, 2, 0, 0 ,1,0
1 , 791 , 0.02 , 1,  0.91699219 , 0.73046875, 0.18652344, 5, 0.00000000, 0, 90, 1, 0, 1, 5, 1, 0, 0, 0, 0, 0, 0, 0, 0 ,1,0
1 , 792 , 0.11 , 0,  1.12988281 , 0.99316406, 0.13671875, 5, 0.00000000, 0, 270, 1, 0, 1, 5, 1, 0, 0, 0, 0, 0, 0, 0, 0 ,1,0
1 , 793 , 0.40 , 1,  1.23339844 , 1.09179688, 0.14160156, 5, 0.00000000, 0, 90, 2, 0, 0, 5, 1, 0, 0, 0, 0, 0, 1, 0, 0 ,1,0
1 , 794 , 0.11 , 1,  2.66210938 , 2.52734375, 0.13476562, 5, 0.00000000, 0, 90, 2, 0, 0, 5, 1, 0, 0, 0, 0, 0, 0, 4, 4 ,1,0
